step_id,sample_offset,master_time_us,phase_id,repeat_index,amplitude,direction,direction_sign,left_command,right_command,gyro_raw_radps,gyro_fan_estimate_radps,gyro_fan_filtered_radps,gyro_directional_raw_baseline_removed_radps,gyro_directional_filtered_baseline_removed_radps,accel_x_raw_mps2,accel_x_fan_estimate_mps2,accel_x_fan_filtered_mps2,accel_y_raw_mps2,accel_y_fan_estimate_mps2,accel_y_fan_filtered_mps2,left_encoder_velocity_mps,right_encoder_velocity_mps,imu_status,mode_flags,saturation_flags
1,-150,42484349,2,1,0.500,CW,1,0.000000,0.000000,-0.019547688,-0.005067805,-0.014479883,-0.020801998,-0.015772268,-0.334704041,-0.001421019,-0.333283023,-0.444150090,0.040297233,-0.484447323,0.000000000,0.000000000,3,8,0
1,-149,42485349,2,1,0.500,CW,1,0.000000,0.000000,-0.035430182,-0.001721363,-0.033708819,-0.036684492,-0.035001203,-0.135827601,0.047911545,-0.183739146,-0.130428970,0.043423555,-0.173852525,0.000000000,0.000000000,3,8,0
1,-148,42486349,2,1,0.500,CW,1,0.000000,0.000000,-0.015882496,0.002540682,-0.018423178,-0.017136806,-0.019715562,0.139068305,0.054669669,0.084398637,0.063262880,0.010294785,0.052968095,0.000000000,0.000000000,3,8,0
1,-147,42487349,2,1,0.500,CW,1,0.000000,0.000000,0.012217305,0.004906445,0.007310860,0.010962995,0.006018475,0.253415912,0.020802496,0.232613416,-0.027609088,-0.026985746,-0.000623341,0.000000000,0.000000000,3,8,0
1,-146,42488349,2,1,0.500,CW,1,0.000000,0.000000,0.037873644,0.003647564,0.034226081,0.036619334,0.032933696,0.107238837,-0.029035324,0.136274161,-0.337998688,-0.043992540,-0.294006149,0.000000000,0.000000000,3,8,0
1,-145,42489349,2,1,0.500,CW,1,0.000000,0.000000,0.032986723,-0.000999551,0.033986274,0.031732413,0.032693890,-0.158047751,-0.059799239,-0.098248512,-0.602394819,-0.028261287,-0.574133532,0.000000000,0.000000000,3,8,0
1,-144,42490349,2,1,0.500,CW,1,0.000000,0.000000,0.001221730,-0.004967906,0.006189637,-0.000032580,0.004897252,-0.329670340,-0.039953305,-0.289717035,-0.617906272,0.014240747,-0.632147020,0.000000000,0.000000000,3,8,0
1,-143,42491349,2,1,0.500,CW,1,0.000000,0.000000,-0.025656341,-0.004386922,-0.021269418,-0.026910651,-0.022561803,-0.307518661,0.016110860,-0.323629521,-0.375478745,0.046094358,-0.421573102,0.000000000,0.000000000,3,8,0
1,-142,42492349,2,1,0.500,CW,1,0.000000,0.000000,-0.031764992,-0.000379849,-0.031385142,-0.033019302,-0.032677527,-0.084816180,0.055100137,-0.139916318,-0.054730833,0.036020536,-0.090751369,0.000000000,0.000000000,3,8,0
1,-141,42493349,2,1,0.500,CW,1,0.000000,0.000000,-0.015882496,0.003540376,-0.019422871,-0.017136806,-0.020715256,0.201917902,0.047848445,0.154069457,0.122093365,-0.001892785,0.123986150,0.000000000,0.000000000,3,8,0
1,-140,42494349,2,1,0.500,CW,1,0.000000,0.000000,0.009773844,0.004964287,0.004809557,0.008519534,0.003517172,0.304199666,0.006169161,0.298030505,0.007223376,-0.034933059,0.042156435,0.000000000,0.000000000,7,8,0
1,-139,42495349,2,1,0.500,CW,1,0.000000,0.000000,0.040317103,0.002493048,0.037824055,0.039062793,0.036531671,0.145980805,-0.042108898,0.188089703,-0.312788039,-0.043018562,-0.269769478,0.000000000,0.000000000,3,8,0
1,-138,42496349,2,1,0.500,CW,1,0.000000,0.000000,0.029321531,-0.002505958,0.031827489,0.028067221,0.030535104,-0.105055071,-0.059711588,-0.045343484,-0.570070446,-0.017144936,-0.552925509,0.000000000,0.000000000,3,8,0
1,-137,42497349,2,1,0.500,CW,1,0.000000,0.000000,-0.004886922,-0.005322941,0.000436019,-0.006141232,-0.000856366,-0.257679313,-0.024748844,-0.232930469,-0.566542327,0.027019762,-0.593562090,0.000000000,0.000000000,3,8,0
1,-136,42498349,2,1,0.500,CW,1,0.000000,0.000000,-0.029321531,-0.003381727,-0.025939804,-0.030575841,-0.027232188,-0.226119503,0.031873652,-0.257993155,-0.297949046,0.047721024,-0.345670070,0.000000000,0.000000000,3,8,0
1,-135,42499349,2,1,0.500,CW,1,0.000000,0.000000,-0.036651913,0.000940402,-0.037592315,-0.037906223,-0.038884699,0.013136435,0.057802445,-0.044666010,0.010703619,0.025992161,-0.015288542,0.000000000,0.000000000,3,8,0
1,-134,42500349,2,1,0.500,CW,1,0.000000,0.000000,-0.006108652,0.004312905,-0.010421557,-0.007362962,-0.011713942,0.275794208,0.037868332,0.237925876,0.125308022,-0.013503624,0.138811646,0.000000000,0.000000000,3,8,0
1,-133,42501349,2,1,0.500,CW,1,0.000000,0.000000,0.023212880,0.004652798,0.018560082,0.021958570,0.017267697,0.318227321,-0.009149373,0.327376694,-0.039717205,-0.040597303,0.000880098,0.000000000,0.000000000,3,8,0
1,-132,42502349,2,1,0.500,CW,1,0.000000,0.000000,0.039095376,0.001079504,0.038015871,0.037841066,0.036723487,0.131323963,-0.052353933,0.183677897,-0.359634727,-0.038817694,-0.320817034,0.000000000,0.000000000,3,8,0
1,-131,42503349,2,1,0.500,CW,1,0.000000,0.000000,0.019547688,-0.003798166,0.023345854,0.018293378,0.022053470,-0.131622776,-0.054446377,-0.077176399,-0.607271314,-0.004130479,-0.603140834,0.000000000,0.000000000,3,8,0
1,-130,42504349,2,1,0.500,CW,1,0.000000,0.000000,-0.004886922,-0.005207124,0.000320202,-0.006141232,-0.000972183,-0.291358024,-0.007414791,-0.283943232,-0.589340508,0.037497424,-0.626837932,0.000000000,0.000000000,3,8,0
1,-129,42505349,2,1,0.500,CW,1,0.000000,0.000000,-0.028099801,-0.002160002,-0.025939799,-0.029354111,-0.027232184,-0.247790635,0.044533707,-0.292324342,-0.306373477,0.045155754,-0.351529231,0.000000000,0.000000000,3,8,0
1,-128,42506349,2,1,0.500,CW,1,0.000000,0.000000,-0.036651913,0.002163443,-0.038815356,-0.037906223,-0.040107741,-0.008491349,0.056138884,-0.064630234,0.007072131,0.014368094,-0.007295964,0.000000000,0.000000000,3,8,0
1,-127,42507349,2,1,0.500,CW,1,0.000000,0.000000,-0.009773844,0.004809784,-0.014583628,-0.011028154,-0.015876012,0.239881456,0.025409200,0.214472256,0.102579430,-0.023877364,0.126456793,0.000000000,0.000000000,3,8,0
1,-126,42508349,2,1,0.500,CW,1,0.000000,0.000000,0.025656341,0.003961384,0.021694956,0.024402031,0.020402572,0.258505970,-0.024220280,0.282726250,-0.088668667,-0.043624731,-0.045043936,0.000000000,0.000000000,3,8,0
1,-125,42509349,2,1,0.500,CW,1,0.000000,0.000000,0.037873644,-0.000473199,0.038346843,0.036619334,0.037054458,0.035901535,-0.058699663,0.094601199,-0.403712213,-0.031413660,-0.372298553,0.000000000,0.000000000,3,8,0
1,-124,42510349,2,1,0.500,CW,1,0.000000,0.000000,0.024434609,-0.004744941,0.029179550,0.023180299,0.027887165,-0.212526113,-0.044306565,-0.168219548,-0.613052070,0.009667314,-0.622719385,0.000000000,0.000000000,7,8,0
1,-123,42511349,2,1,0.500,CW,1,0.000000,0.000000,-0.001221730,-0.004656253,0.003434522,-0.002476040,0.002142137,-0.329114914,0.010354976,-0.339469890,-0.547348917,0.044600215,-0.591949132,0.000000000,0.000000000,3,8,0
1,-122,42512349,2,1,0.500,CW,1,0.000000,0.000000,-0.029321531,-0.000831424,-0.028490107,-0.030575841,-0.029782491,-0.263979673,0.053185677,-0.317165350,-0.231033370,0.038843044,-0.269876414,0.000000000,0.000000000,3,8,0
1,-121,42513349,2,1,0.500,CW,1,0.000000,0.000000,-0.030543262,0.003228155,-0.033771417,-0.031797572,-0.035063802,-0.007931743,0.050519215,-0.058450958,0.070321344,0.002166058,0.068155286,0.000000000,0.000000000,3,8,0
1,-120,42514349,2,1,0.500,CW,1,0.000000,0.000000,-0.001221730,0.004984748,-0.006206478,-0.002476040,-0.007498863,0.242828012,0.011193130,0.231634882,0.129881606,-0.032505168,0.162386773,0.000000000,0.000000000,3,8,0
1,-119,42515349,2,1,0.500,CW,1,0.000000,0.000000,0.028099801,0.002913758,0.025186044,0.026845491,0.023893659,0.235178217,-0.037985135,0.273163353,-0.097241662,-0.043698791,-0.053542872,0.000000000,0.000000000,3,8,0
1,-118,42516349,2,1,0.500,CW,1,0.000000,0.000000,0.034208454,-0.002017517,0.036225972,0.032954144,0.034933587,0.003068265,-0.060316120,0.063384385,-0.443312556,-0.021129337,-0.422183218,0.000000000,0.000000000,3,8,0
1,-117,42517349,2,1,0.500,CW,1,0.000000,0.000000,0.028099801,-0.005256692,0.033356494,0.026845491,0.032064109,-0.230965495,-0.030162268,-0.200803227,-0.645409048,0.022930808,-0.668339856,0.000000000,0.000000000,3,8,0
1,-116,42518349,2,1,0.500,CW,1,0.000000,0.000000,-0.006108652,-0.003748329,-0.002360324,-0.007362962,-0.003652708,-0.316472918,0.026877522,-0.343350440,-0.560536981,0.047652072,-0.608189053,0.000000000,0.000000000,3,8,0
1,-115,42519349,2,1,0.500,CW,1,0.000000,0.000000,-0.037873644,0.000505277,-0.038378921,-0.039127954,-0.039671306,-0.198826164,0.057396220,-0.256222384,-0.229866818,0.029583605,-0.259450423,0.000000000,0.000000000,3,8,0
1,-114,42520349,2,1,0.500,CW,1,0.000000,0.000000,-0.032986723,0.004082286,-0.037069009,-0.034241033,-0.038361393,0.071419679,0.041524401,0.029895277,0.066709474,-0.009720375,0.076429848,0.000000000,0.000000000,3,8,0
1,-113,42521349,2,1,0.500,CW,1,0.000000,0.000000,-0.006108652,0.004799618,-0.010908270,-0.007362962,-0.012200655,0.295752287,-0.003993313,0.299745600,0.097620562,-0.038975483,0.136596045,0.000000000,0.000000000,3,8,0
1,-112,42522349,2,1,0.500,CW,1,0.000000,0.000000,0.023212880,0.001575493,0.021637387,0.021958570,0.020345002,0.268892407,-0.049304479,0.318196886,-0.141378418,-0.040589252,-0.100789165,0.000000000,0.000000000,3,8,0
1,-111,42523349,2,1,0.500,CW,1,0.000000,0.000000,0.039095376,-0.003397702,0.042493078,0.037841066,0.041200693,0.029550906,-0.056781444,0.086332350,-0.470644772,-0.008641044,-0.462003728,0.000000000,0.000000000,3,8,0
1,-110,42524349,2,1,0.500,CW,1,0.000000,0.000000,0.018325957,-0.005297205,0.023623161,0.017071647,0.022330777,-0.209311903,-0.013359717,-0.195952186,-0.634478092,0.034315045,-0.668793137,0.000000000,0.000000000,3,8,0
1,-109,42525349,2,1,0.500,CW,1,0.000000,0.000000,-0.014660765,-0.002586735,-0.012074031,-0.015915075,-0.013366415,-0.292474598,0.040701517,-0.333176115,-0.523359418,0.046463892,-0.569823310,0.000000000,0.000000000,3,8,0
1,-108,42526349,2,1,0.500,CW,1,0.000000,0.000000,-0.032986723,0.001768342,-0.034755065,-0.034241033,-0.036047450,-0.162935629,0.057162219,-0.220097849,-0.192763582,0.018377568,-0.211141150,0.000000000,0.000000000,7,8,0
1,-107,42527349,2,1,0.500,CW,1,0.000000,0.000000,-0.026878070,0.004676891,-0.031554961,-0.028132380,-0.032847346,0.107238434,0.029817985,0.077420449,0.098962478,-0.020572012,0.119534490,0.000000000,0.000000000,3,8,0
1,-106,42528349,2,1,0.500,CW,1,0.000000,0.000000,-0.003665191,0.004234826,-0.007900017,-0.004919501,-0.009192402,0.307619065,-0.019259238,0.326878303,0.120256871,-0.042924420,0.163181291,0.000000000,0.000000000,3,8,0
1,-105,42529349,2,1,0.500,CW,1,0.000000,0.000000,0.030543262,0.000054024,0.030489238,0.029288952,0.029196853,0.247302920,-0.057065285,0.304368205,-0.142667726,-0.034239403,-0.108428322,0.000000000,0.000000000,3,8,0
1,-104,42530349,2,1,0.500,CW,1,0.000000,0.000000,0.043982297,-0.004472643,0.048454940,0.042727987,0.047162556,-0.018263817,-0.048205841,0.029942024,-0.464767396,0.005034104,-0.469801500,0.000000000,0.000000000,3,8,0
1,-103,42531349,2,1,0.500,CW,1,0.000000,0.000000,0.014660765,-0.004885254,0.019546019,0.013406455,0.018253635,-0.254642934,0.004456967,-0.259099901,-0.595179915,0.042646778,-0.637826693,0.000000000,0.000000000,3,8,0
1,-102,42532349,2,1,0.500,CW,1,0.000000,0.000000,-0.013439035,-0.001282235,-0.012156800,-0.014693345,-0.013449185,-0.316222608,0.050768554,-0.366991162,-0.453095376,0.041332806,-0.494428182,0.000000000,0.000000000,3,8,0
1,-101,42533349,2,1,0.500,CW,1,0.000000,0.000000,-0.031764992,0.002892252,-0.034657243,-0.033019302,-0.035949628,-0.184248149,0.052810139,-0.237058288,-0.129804194,0.006261878,-0.136066072,0.000000000,0.000000000,3,8,0
1,-100,42534349,2,1,0.500,CW,1,0.000000,0.000000,-0.019547688,0.004964597,-0.024512285,-0.020801998,-0.025804670,0.095520690,0.016107185,0.079413505,0.130751416,-0.029834512,0.160585928,0.000000000,0.000000000,3,8,0
1,-99,42535349,2,1,0.500,CW,1,0.000000,0.000000,0.009773844,0.003301454,0.006472390,0.008519534,0.005180005,0.288760662,-0.033586441,0.322347104,0.123325825,-0.044019893,0.167345718,0.000000000,0.000000000,3,8,0
1,-98,42536349,2,1,0.500,CW,1,0.000000,0.000000,0.037873644,-0.001510512,0.039384156,0.036619334,0.038091771,0.204601824,-0.060337379,0.264939203,-0.177813515,-0.024863188,-0.152950327,0.000000000,0.000000000,3,8,0
1,-97,42537349,2,1,0.500,CW,1,0.000000,0.000000,0.035430182,-0.005137030,0.040567211,0.034175872,0.039274827,-0.053715389,-0.035274488,-0.018440901,-0.523723245,0.018629258,-0.542352503,0.000000000,0.000000000,3,8,0
1,-96,42538349,2,1,0.500,CW,1,0.000000,0.000000,0.007330383,-0.004086371,0.011416754,0.006076073,0.010124369,-0.263755202,0.021574831,-0.285330033,-0.646853685,0.047102590,-0.693956275,0.000000000,0.000000000,3,8,0
1,-95,42539349,2,1,0.500,CW,1,0.000000,0.000000,-0.017104227,0.000061739,-0.017165966,-0.018358537,-0.018458351,-0.306212366,0.056487863,-0.362700229,-0.490337670,0.032956070,-0.523293740,0.000000000,0.000000000,3,8,0
1,-94,42540349,2,1,0.500,CW,1,0.000000,0.000000,-0.036651913,0.003822501,-0.040474414,-0.037906223,-0.041766799,-0.152765572,0.044875498,-0.197641070,-0.159807861,-0.005819446,-0.153988415,0.000000000,0.000000000,3,8,0
1,-93,42541349,2,1,0.500,CW,1,0.000000,0.000000,-0.030543262,0.004903523,-0.035446785,-0.031797572,-0.036739170,0.124552265,0.001152705,0.123399559,0.098419718,-0.037070163,0.135489881,0.000000000,0.000000000,3,8,0
1,-92,42542349,2,1,0.500,CW,1,0.000000,0.000000,0.003665191,0.002050616,0.001614575,0.002410881,0.000322191,0.291465729,-0.045853700,0.337319429,0.081506610,-0.041994464,0.123501074,0.000000000,0.000000000,7,8,0
1,-91,42543349,2,1,0.500,CW,1,0.000000,0.000000,0.030543262,-0.002962637,0.033505899,0.029288952,0.032213514,0.188197225,-0.058545240,0.246742466,-0.214772999,-0.013016106,-0.201756893,0.000000000,0.000000000,3,8,0
1,-90,42544349,2,1,0.500,CW,1,0.000000,0.000000,0.030543262,-0.005336052,0.035879314,0.029288952,0.034586930,-0.077251285,-0.019190124,-0.058061161,-0.520012200,0.030786722,-0.550798922,0.000000000,0.000000000,3,8,0
1,-89,42545349,2,1,0.500,CW,1,0.000000,0.000000,0.007330383,-0.002997479,0.010327862,0.006076073,0.009035477,-0.284856021,0.036443223,-0.321299244,-0.590613246,0.047325629,-0.637938875,0.000000000,0.000000000,3,8,0
1,-88,42546349,2,1,0.500,CW,1,0.000000,0.000000,-0.023212880,0.001357513,-0.024570393,-0.024467190,-0.025862778,-0.284286320,0.057721148,-0.342007468,-0.396001071,0.022285675,-0.418286746,0.000000000,0.000000000,3,8,0
1,-87,42547349,2,1,0.500,CW,1,0.000000,0.000000,-0.037873644,0.004509478,-0.042383122,-0.039127954,-0.043675507,-0.085510679,0.034001153,-0.119511832,-0.077600121,-0.017087134,-0.060512987,0.000000000,0.000000000,3,8,0
1,-86,42548349,2,1,0.500,CW,1,0.000000,0.000000,-0.019547688,0.004466515,-0.024014203,-0.020801998,-0.025306588,0.174956352,-0.014193653,0.189150004,0.127926230,-0.041903019,0.169829249,0.000000000,0.000000000,3,8,0
1,-85,42549349,2,1,0.500,CW,1,0.000000,0.000000,0.010995574,0.000576275,0.010419299,0.009741264,0.009126915,0.315500617,-0.054923595,0.370424212,0.075133570,-0.036722211,0.111855780,0.000000000,0.000000000,3,8,0
1,-84,42550349,2,1,0.500,CW,1,0.000000,0.000000,0.034208454,-0.004153786,0.038362241,0.032954144,0.037069856,0.195467800,-0.051611315,0.247079115,-0.221133307,0.000392702,-0.221526009,0.000000000,0.000000000,3,8,0
1,-83,42551349,2,1,0.500,CW,1,0.000000,0.000000,0.039095376,-0.005070517,0.044165893,0.037841066,0.042873508,-0.081935443,-0.001520959,-0.080414484,-0.523971796,0.040253882,-0.564225678,0.000000000,0.000000000,3,8,0
1,-82,42552349,2,1,0.500,CW,1,0.000000,0.000000,0.017104227,-0.001728750,0.018832977,0.015849917,0.017540592,-0.289530784,0.047859099,-0.337389883,-0.585012794,0.043455760,-0.628468554,0.000000000,0.000000000,3,8,0
1,-81,42553349,2,1,0.500,CW,1,0.000000,0.000000,-0.020769419,0.002534552,-0.023303971,-0.022023729,-0.024596356,-0.293727815,0.054697700,-0.348425515,-0.359367281,0.010362999,-0.369730281,0.000000000,0.000000000,3,8,0
1,-80,42554349,2,1,0.500,CW,1,0.000000,0.000000,-0.035430182,0.004905140,-0.040335321,-0.036684492,-0.041627706,-0.073440969,0.020880744,-0.094321713,-0.036263574,-0.026935643,-0.009327931,0.000000000,0.000000000,3,8,0
1,-79,42555349,2,1,0.500,CW,1,0.000000,0.000000,-0.014660765,0.003653115,-0.018313881,-0.015915075,-0.019606265,0.218046427,-0.028956499,0.247002926,0.145299718,-0.043989192,0.189288910,0.000000000,0.000000000,3,8,0
1,-78,42556349,2,1,0.500,CW,1,0.000000,0.000000,0.013439035,-0.000990818,0.014429853,0.012184725,0.013137469,0.310743779,-0.059785424,0.370529202,0.037547458,-0.028316396,0.065863854,0.000000000,0.000000000,3,8,0
1,-77,42557349,2,1,0.500,CW,1,0.000000,0.000000,0.037873644,-0.004964607,0.042838251,0.036619334,0.041545866,0.159675971,-0.040029338,0.199705309,-0.277748525,0.014165295,-0.291913820,0.000000000,0.000000000,3,8,0
1,-76,42558349,2,1,0.500,CW,1,0.000000,0.000000,0.031764992,-0.004391722,0.036156713,0.030510682,0.034864329,-0.098551378,0.016016419,-0.114567796,-0.544653177,0.046073301,-0.590726478,0.000000000,0.000000000,7,8,0
1,-75,42559349,2,1,0.500,CW,1,0.000000,0.000000,0.001221730,-0.000387363,0.001609094,-0.000032580,0.000316709,-0.298949391,0.055072382,-0.354021773,-0.569832265,0.036070109,-0.605902375,0.000000000,0.000000000,3,8,0
1,-74,42560349,2,1,0.500,CW,1,0.000000,0.000000,-0.028099801,0.003535376,-0.031635177,-0.029354111,-0.032927562,-0.298351496,0.047895939,-0.346247435,-0.322724819,-0.001825603,-0.320899216,0.000000000,0.000000000,3,8,0
1,-73,42561349,2,1,0.500,CW,1,0.000000,0.000000,-0.035430182,0.004964967,-0.040395149,-0.036684492,-0.041687533,-0.070891283,0.006253623,-0.077144907,0.009857779,-0.034894660,0.044752440,0.000000000,0.000000000,3,8,0
1,-72,42562349,2,1,0.500,CW,1,0.000000,0.000000,-0.013439035,0.002500312,-0.015939347,-0.014693345,-0.017231731,0.206262797,-0.042042657,0.248305455,0.169836521,-0.043032873,0.212869394,0.000000000,0.000000000,3,8,0
1,-71,42563349,2,1,0.500,CW,1,0.000000,0.000000,0.013439035,-0.002498001,0.015937036,0.012184725,0.014644651,0.287043542,-0.059726470,0.346770012,0.040542841,-0.017213215,0.057756056,0.000000000,0.000000000,3,8,0
1,-70,42564349,2,1,0.500,CW,1,0.000000,0.000000,0.040317103,-0.005322275,0.045639378,0.039062793,0.044346993,0.119306840,-0.024841215,0.144148055,-0.274759114,0.026953619,-0.301712733,0.000000000,0.000000000,3,8,0
1,-69,42565349,2,1,0.500,CW,1,0.000000,0.000000,0.030543262,-0.003388049,0.033931311,0.029288952,0.032638926,-0.129287615,0.031793150,-0.161080765,-0.551221907,0.047723791,-0.598945698,0.000000000,0.000000000,3,8,0
1,-68,42566349,2,1,0.500,CW,1,0.000000,0.000000,-0.003665191,0.000933233,-0.004598424,-0.004919501,-0.005890809,-0.284251451,0.057799745,-0.342051197,-0.578775883,0.026053597,-0.604829479,0.000000000,0.000000000,3,8,0
1,-67,42567349,2,1,0.500,CW,1,0.000000,0.000000,-0.031764992,0.004309310,-0.036074302,-0.033019302,-0.037366686,-0.264578670,0.037931625,-0.302510295,-0.336426616,-0.013441660,-0.322984956,0.000000000,0.000000000,3,8,0
1,-66,42568349,2,1,0.500,CW,1,0.000000,0.000000,-0.035430182,0.004655597,-0.040085779,-0.036684492,-0.041378164,-0.027633848,-0.009063553,-0.018570294,-0.020532902,-0.040572667,0.020039765,0.000000000,0.000000000,3,8,0
1,-65,42569349,2,1,0.500,CW,1,0.000000,0.000000,-0.007330383,0.001087915,-0.008418298,-0.008584693,-0.009710683,0.254209787,-0.052306612,0.306516398,0.110850193,-0.038850205,0.149700398,0.000000000,0.000000000,3,8,0
1,-64,42570349,2,1,0.500,CW,1,0.000000,0.000000,0.021991149,-0.003791801,0.025782950,0.020736839,0.024490565,0.306238174,-0.054489885,0.360728060,-0.054146055,-0.004206522,-0.049939533,0.000000000,0.000000000,3,8,0
1,-63,42571349,2,1,0.500,CW,1,0.000000,0.000000,0.040317103,-0.005209035,0.045526138,0.039062793,0.044233754,0.097866468,-0.007514457,0.105380925,-0.369258642,0.037447425,-0.406706067,0.000000000,0.000000000,3,8,0
1,-62,42572349,2,1,0.500,CW,1,0.000000,0.000000,0.021991149,-0.002167223,0.024158372,0.020736839,0.022865987,-0.174565494,0.044473490,-0.219038984,-0.588219523,0.045181100,-0.633400623,0.000000000,0.000000000,3,8,0
1,-61,42573349,2,1,0.500,CW,1,0.000000,0.000000,-0.003665191,0.002156999,-0.005822190,-0.004919501,-0.007114575,-0.317498595,0.056159648,-0.373658243,-0.541670442,0.014435544,-0.556105986,0.000000000,0.000000000,3,8,0
1,-60,42574349,2,1,0.500,CW,1,0.000000,0.000000,-0.025656341,0.004807861,-0.030464202,-0.026910651,-0.031756586,-0.266714811,0.025484379,-0.292199190,-0.246858537,-0.023823842,-0.223034695,0.000000000,0.000000000,7,8,0
1,-59,42575349,2,1,0.500,CW,1,0.000000,0.000000,-0.034208454,0.003966277,-0.038174731,-0.035462764,-0.039467116,-0.017825553,-0.024138675,0.006313122,0.078408204,-0.043615753,0.122023957,0.000000000,0.000000000,3,8,0
1,-58,42576349,2,1,0.500,CW,1,0.000000,0.000000,-0.010995574,-0.000464402,-0.010531172,-0.012249884,-0.011823557,0.263998449,-0.058676737,0.322675185,0.195265204,-0.031463484,0.226728688,0.000000000,0.000000000,3,8,0
1,-57,42577349,2,1,0.500,CW,1,0.000000,0.000000,0.025656341,-0.004740800,0.030397141,0.024402031,0.029104756,0.311231166,-0.044375392,0.355606558,0.006219751,0.009590440,-0.003370689,0.000000000,0.000000000,0,8,0
1,-56,42578349,2,1,0.500,CW,1,0.000000,0.000000,0.039095376,-0.004660410,0.043755785,0.037841066,0.042463401,0.088521272,0.010257672,0.078263600,-0.330505937,0.044571375,-0.375077313,0.000000000,0.000000000,0,8,0
1,-55,42579349,2,1,0.500,CW,1,0.000000,0.000000,0.039095376,-0.000838953,0.039934329,0.037841066,0.038641944,-0.183891997,0.053149490,-0.237041487,-0.556708455,0.038887365,-0.595595820,0.000000000,0.000000000,0,8,0
1,-54,42580349,2,1,0.500,CW,1,0.000000,0.000000,0.024434609,0.003222746,0.021211863,0.023180299,0.019919479,-0.300538033,0.050560577,-0.351098610,-0.500670195,0.002234103,-0.502904298,0.000000000,0.000000000,0,8,0
1,-53,42581349,2,1,0.500,CW,1,0.000000,0.000000,-0.003665191,0.004984741,-0.008649933,-0.004919501,-0.009942317,-0.299936950,0.011276018,-0.311212968,-0.191612050,-0.032462606,-0.159149443,0.000000000,0.000000000,0,8,0
1,-52,42582349,2,1,0.500,CW,1,0.000000,0.000000,-0.028099801,0.002920499,-0.031020300,-0.029354111,-0.032312685,-0.225307941,-0.037913955,-0.187393986,-0.191228822,-0.043707068,-0.147521754,0.000000000,0.000000000,0,8,0
1,-51,42583349,2,1,0.500,CW,1,0.000000,0.000000,-0.031764992,-0.002009203,-0.029755788,-0.033019302,-0.031048173,0.016334409,-0.060321235,0.076655644,0.110046297,-0.021193711,0.131240008,0.000000000,0.000000000,0,8,0
1,-50,42584349,2,1,0.500,CW,1,0.000000,0.000000,-0.002443461,-0.005255135,0.002811674,-0.003697771,0.001519289,0.269433677,-0.030250102,0.299683779,0.174303159,0.022860721,0.151442438,0.000000000,0.000000000,1,8,0
1,-49,42585349,2,1,0.500,CW,1,0.000000,0.000000,0.024434609,-0.003754209,0.028188818,0.023180299,0.026896433,0.280834943,0.026791522,0.254043422,-0.055296995,0.047646859,-0.102943853,0.000000000,0.000000000,1,8,0
1,-48,42586349,2,1,0.500,CW,1,0.000000,0.000000,0.034208454,0.000497946,0.033710508,0.032954144,0.032418123,0.046245676,0.057385215,-0.011139540,-0.408615887,0.029641718,-0.438257605,0.000000000,0.000000000,3,8,0
1,-47,42587349,2,1,0.500,CW,1,0.000000,0.000000,0.028099801,0.004078190,0.024021612,0.026845491,0.022729227,-0.197426602,0.041582824,-0.239009426,-0.625110090,-0.009656258,-0.615453832,0.000000000,0.000000000,3,8,0
1,-46,42588349,2,1,0.500,CW,1,0.000000,0.000000,-0.008552114,0.004801701,-0.013353814,-0.009806424,-0.014646199,-0.299717337,-0.003907364,-0.295809973,-0.549830675,-0.038946015,-0.510884661,0.000000000,0.000000000,3,8,0
1,-45,42589349,2,1,0.500,CW,1,0.000000,0.000000,-0.036651913,0.001583596,-0.038235509,-0.037906223,-0.039527894,-0.203596428,-0.049250143,-0.154346285,-0.233510137,-0.040615680,-0.192894456,0.000000000,0.000000000,3,8,0
1,-44,42590349,2,1,0.500,CW,1,0.000000,0.000000,-0.032986723,-0.003390721,-0.029596002,-0.034241033,-0.030888387,0.052330729,-0.056815563,0.109146292,0.070237577,-0.008715195,0.078952772,0.000000000,0.000000000,3,8,0
1,-43,42591349,2,1,0.500,CW,1,0.000000,0.000000,-0.006108652,-0.005298277,-0.000810376,-0.007362962,-0.002102760,0.274313509,-0.013458011,0.287771520,0.125021935,0.034258966,0.090762969,0.000000000,0.000000000,7,8,0
1,-42,42592349,2,1,0.500,CW,1,0.000000,0.000000,0.021991149,-0.002593723,0.024584871,0.020736839,0.023292487,0.249884531,0.040633950,0.209250581,-0.097315550,0.046481967,-0.143797517,0.000000000,0.000000000,3,8,0
1,-41,42593349,2,1,0.500,CW,1,0.000000,0.000000,0.040317103,0.001761618,0.038555486,0.039062793,0.037263101,0.001028905,0.057175388,-0.056146484,-0.426670015,0.018443640,-0.445113655,0.000000000,0.000000000,3,8,0
1,-40,42594349,2,1,0.500,CW,1,0.000000,0.000000,0.020769419,0.004674379,0.016095040,0.019515109,0.014802655,-0.244940981,0.029889629,-0.274830610,-0.602531433,-0.020515351,-0.582016082,0.000000000,0.000000000,3,8,0
1,-39,42595349,2,1,0.500,CW,1,0.000000,0.000000,-0.014660765,0.004239032,-0.018899798,-0.015915075,-0.020192183,-0.323256344,-0.019175555,-0.304080788,-0.484312564,-0.042909995,-0.441402569,0.000000000,0.000000000,3,8,0
1,-38,42596349,2,1,0.500,CW,1,0.000000,0.000000,-0.031764992,0.000062785,-0.031827776,-0.033019302,-0.033120161,-0.188879758,-0.057033665,-0.131846094,-0.146630734,-0.034283633,-0.112347102,0.000000000,0.000000000,3,8,0
1,-37,42597349,2,1,0.500,CW,1,0.000000,0.000000,-0.025656341,-0.004467702,-0.021188639,-0.026910651,-0.022481024,0.086122252,-0.048266747,0.134388999,0.137838960,0.004956672,0.132882288,0.000000000,0.000000000,3,8,0
1,-36,42598349,2,1,0.500,CW,1,0.000000,0.000000,-0.002443461,-0.004888709,0.002445248,-0.003697771,0.001152863,0.288933188,0.004357814,0.284575374,0.156667575,0.042610434,0.114057142,0.000000000,0.000000000,3,8,0
1,-35,42599349,2,1,0.500,CW,1,0.000000,0.000000,0.029321531,-0.001289722,0.030611253,0.028067221,0.029318868,0.254922777,0.050724061,0.204198716,-0.099165708,0.041371284,-0.140536992,0.000000000,0.000000000,3,8,0
1,-34,42600349,2,1,0.500,CW,1,0.000000,0.000000,0.041538838,0.002886464,0.038652375,0.040284528,0.037359990,0.015609201,0.052844967,-0.037235766,-0.430904537,0.006330277,-0.437234815,0.000000000,0.000000000,3,8,0
1,-33,42601349,2,1,0.500,CW,1,0.000000,0.000000,0.015882496,0.004963924,0.010918572,0.014628186,0.009626187,-0.230389833,0.016187979,-0.246577813,-0.580489039,-0.029788026,-0.550701013,0.000000000,0.000000000,3,8,0
1,-32,42602349,2,1,0.500,CW,1,0.000000,0.000000,-0.013439035,0.003307618,-0.016746653,-0.014693345,-0.018039038,-0.308734268,-0.033511050,-0.275223218,-0.443210006,-0.044022242,-0.399187764,0.000000000,0.000000000,3,8,0
1,-31,42603349,2,1,0.500,CW,1,0.000000,0.000000,-0.032986723,-0.001501937,-0.031484785,-0.034241033,-0.032777170,-0.164834589,-0.060332839,-0.104501749,-0.100834280,-0.024923118,-0.075911162,0.000000000,0.000000000,3,8,0
1,-30,42604349,2,1,0.500,CW,1,0.000000,0.000000,-0.019547688,-0.005134585,-0.014413102,-0.020801998,-0.015705487,0.119671486,-0.035356814,0.155028300,0.171603575,0.018556048,0.153047528,0.000000000,0.000000000,3,8,0
1,-29,42605349,2,1,0.500,CW,1,0.000000,0.000000,0.004886922,-0.004091740,0.008978662,0.003632612,0.007686277,0.315251142,0.021484138,0.293767004,0.159320176,0.047089356,0.112230820,0.000000000,0.000000000,3,8,0
1,-28,42606349,2,1,0.500,CW,1,0.000000,0.000000,0.032986723,0.000054291,0.032932432,0.031732413,0.031640047,0.235815436,0.056468435,0.179347001,-0.134727031,0.033010197,-0.167737228,0.000000000,0.000000000,3,8,0
1,-27,42607349,2,1,0.500,CW,1,0.000000,0.000000,0.035430182,0.003817934,0.031612247,0.034175872,0.030319863,-0.015400097,0.044928619,-0.060328716,-0.468782753,-0.005753571,-0.463029181,0.000000000,0.000000000,7,8,0
1,-26,42608349,2,1,0.500,CW,1,0.000000,0.000000,0.008552114,0.004904893,0.003647220,0.007297804,0.002354835,-0.232680663,0.001238185,-0.233918849,-0.599187255,-0.037036081,-0.562151174,0.000000000,0.000000000,3,8,0
1,-25,42609349,2,1,0.500,CW,1,0.000000,0.000000,-0.019547688,0.002058331,-0.021606019,-0.020801998,-0.022898404,-0.289528191,-0.045793018,-0.243735173,-0.447542548,-0.042014773,-0.405527775,0.000000000,0.000000000,3,8,0
1,-24,42610349,2,1,0.500,CW,1,0.000000,0.000000,-0.037873644,-0.002955121,-0.034918524,-0.039127954,-0.036210909,-0.138502821,-0.058569722,-0.079933099,-0.114710361,-0.013087629,-0.101622732,0.000000000,0.000000000,3,8,0
1,-23,42611349,2,1,0.500,CW,1,0.000000,0.000000,-0.030543262,-0.005336257,-0.025207005,-0.031797572,-0.026499390,0.131622344,-0.019285956,0.150908301,0.136262983,0.030725214,0.105537769,0.000000000,0.000000000,3,8,0
1,-22,42612349,2,1,0.500,CW,1,0.000000,0.000000,0.003665191,-0.003004165,0.006669357,0.002410881,0.005376972,0.291357607,0.036368828,0.254988778,0.109721996,0.047336104,0.062385892,0.000000000,0.000000000,3,8,0
1,-21,42613349,2,1,0.500,CW,1,0.000000,0.000000,0.036651913,0.001350546,0.035301367,0.035397603,0.034008983,0.188089281,0.057726434,0.130362847,-0.184225991,0.022349731,-0.206575723,0.000000000,0.000000000,3,8,0
1,-20,42614349,2,1,0.500,CW,1,0.000000,0.000000,0.035430182,0.004506405,0.030923777,0.034175872,0.029631392,-0.063030794,0.034068806,-0.097099600,-0.501466453,-0.017027637,-0.484438816,0.000000000,0.000000000,3,8,0
1,-19,42615349,2,1,0.500,CW,1,0.000000,0.000000,0.009773844,0.004470017,0.005303827,0.008519534,0.004011442,-0.268275946,-0.014108571,-0.254167375,-0.598372996,-0.041883344,-0.556489652,0.000000000,0.000000000,3,8,0
1,-18,42616349,2,1,0.500,CW,1,0.000000,0.000000,-0.014660765,0.000584905,-0.015245670,-0.015915075,-0.016538055,-0.315500140,-0.054883778,-0.260616362,-0.432401747,-0.036760612,-0.395641135,0.000000000,0.000000000,3,8,0
1,-17,42617349,2,1,0.500,CW,1,0.000000,0.000000,-0.036651913,-0.004148096,-0.032503817,-0.037906223,-0.033796201,-0.135766357,-0.051663691,-0.084102666,-0.111540020,0.000315566,-0.111855585,0.000000000,0.000000000,3,8,0
1,-16,42618349,2,1,0.500,CW,1,0.000000,0.000000,-0.024434609,-0.005073217,-0.019361393,-0.025688919,-0.020653777,0.151069626,-0.001620904,0.152690530,0.129874781,0.040210417,0.089664364,0.000000000,0.000000000,3,8,0
1,-15,42619349,2,1,0.500,CW,1,0.000000,0.000000,0.008552114,-0.001736134,0.010288248,0.007297804,0.008995863,0.286885619,0.047806521,0.239079098,0.098570555,0.043487855,0.055082701,0.000000000,0.000000000,3,8,0
1,-14,42620349,2,1,0.500,CW,1,0.000000,0.000000,0.030543262,0.002528417,0.028014845,0.029288952,0.026722461,0.171686023,0.054725613,0.116960410,-0.190579072,0.010431206,-0.201010278,0.000000000,0.000000000,3,8,0
1,-13,42621349,2,1,0.500,CW,1,0.000000,0.000000,0.041538838,0.004903824,0.036635014,0.040284528,0.035342630,-0.084177308,0.020958944,-0.105136251,-0.483926475,-0.026885481,-0.457040994,0.000000000,0.000000000,3,8,0
1,-12,42622349,2,1,0.500,CW,1,0.000000,0.000000,0.017104227,0.003658656,0.013445571,0.015849917,0.012153186,-0.284604073,-0.028877622,-0.255726451,-0.537883461,-0.043985749,-0.493897711,0.000000000,0.000000000,3,8,0
1,-11,42623349,2,1,0.500,CW,1,0.000000,0.000000,-0.021991149,-0.000982083,-0.021009065,-0.023245459,-0.022301450,-0.293586999,-0.059771453,-0.233815546,-0.317108303,-0.028371420,-0.288736883,0.000000000,0.000000000,7,8,0
1,-10,42624349,2,1,0.500,CW,1,0.000000,0.000000,-0.032986723,-0.004961293,-0.028025430,-0.034241033,-0.029317815,-0.090016685,-0.040105258,-0.049911428,0.017851079,0.014089812,0.003761267,0.000000000,0.000000000,3,8,0
1,-9,42625349,2,1,0.500,CW,1,0.000000,0.000000,-0.014660765,-0.004396511,-0.010264254,-0.015915075,-0.011556639,0.187175661,0.015921922,0.171253740,0.211246401,0.046052113,0.165194288,0.000000000,0.000000000,3,8,0
1,-8,42626349,2,1,0.500,CW,1,0.000000,0.000000,0.013439035,-0.000394878,0.013833913,0.012184725,0.012541529,0.303815097,0.055044486,0.248770611,0.110526331,0.036119600,0.074406731,0.000000000,0.000000000,3,8,0
1,-7,42627349,2,1,0.500,CW,1,0.000000,0.000000,0.035430182,0.003530369,0.031899812,0.034175872,0.030607428,0.164701343,0.047943334,0.116758009,-0.212079749,-0.001758402,-0.210321346,0.000000000,0.000000000,3,8,0
1,-6,42628349,2,1,0.500,CW,1,0.000000,0.000000,0.032986723,0.004965635,0.028021088,0.031732413,0.026728703,-0.079207860,0.006338064,-0.085545924,-0.505384147,-0.034856190,-0.470527957,0.000000000,0.000000000,3,8,0
1,-5,42629349,2,1,0.500,CW,1,0.000000,0.000000,0.001221730,0.002507567,-0.001285837,-0.000032580,-0.002578221,-0.258152246,-0.041976329,-0.216175918,-0.559298217,-0.043047083,-0.516251134,0.000000000,0.000000000,3,8,0
1,-4,42630349,2,1,0.500,CW,1,0.000000,0.000000,-0.028099801,-0.002490037,-0.025609765,-0.029354111,-0.026902149,-0.264800042,-0.059741189,-0.205058853,-0.343256295,-0.017281433,-0.325974862,0.000000000,0.000000000,3,8,0
1,-3,42631349,2,1,0.500,CW,1,0.000000,0.000000,-0.035430182,-0.005321594,-0.030108588,-0.036684492,-0.031400972,-0.061287295,-0.024933519,-0.036353776,-0.029736949,0.026887403,-0.056624352,0.000000000,0.000000000,3,8,0
1,-2,42632349,2,1,0.500,CW,1,0.000000,0.000000,-0.020769419,-0.003394363,-0.017375056,-0.022023729,-0.018667441,0.208683476,0.031712551,0.176970925,0.147037283,0.047726425,0.099310857,0.000000000,0.000000000,3,8,0
1,-1,42633349,20,1,0.500,CW,1,0.000000,0.000000,0.007330383,0.000926061,0.006404321,0.006076073,0.005111937,0.299011469,0.057796908,0.241214561,0.048833665,0.026114983,0.022718682,0.000000000,0.000000000,3,8,0
1,0,42634349,20,1,0.500,CW,1,0.500000,-0.500000,0.034208454,0.004305707,0.029902748,0.032954144,0.028610363,0.131513909,0.037994840,0.093519069,-0.252662003,-0.013379656,-0.239282347,0.000000000,0.000000000,3,4,0
1,1,42635349,20,1,0.500,CW,1,0.500000,-0.500000,0.029321531,0.004658385,0.024663146,0.028067221,0.023370761,-0.136482224,-0.008977726,-0.127504498,-0.513479650,-0.040547948,-0.472931702,0.011744265,-0.017616399,3,4,0
1,2,42636349,20,1,0.500,CW,1,0.500000,-0.500000,-0.002443461,0.001096322,-0.003539783,-0.003697771,-0.004832168,-0.299194187,-0.052259168,-0.246935019,-0.527836621,-0.038882616,-0.488954004,0.035232797,-0.052849196,3,4,0
1,3,42637349,20,1,0.500,CW,1,0.500000,-0.500000,-0.030543262,-0.003785425,-0.026757837,-0.031797572,-0.028050222,-0.301586986,-0.054533239,-0.247053747,-0.188055784,-0.004282540,-0.183773244,0.023488531,-0.070465595,3,4,0
1,4,42638349,20,1,0.500,CW,1,0.500000,-0.500000,-0.009773844,-0.005210932,-0.004562911,-0.011028154,-0.005855296,-0.203481257,-0.007614108,-0.195867149,0.508255661,0.037397319,0.470858342,0.011744265,-0.064593457,3,4,0
1,5,42639349,20,1,0.500,CW,1,0.500000,-0.500000,0.081855945,-0.002174441,0.084030386,0.080601635,0.082738001,-0.227409482,0.044413147,-0.271822629,1.281137466,0.045206328,1.235931139,0.000000000,-0.052849196,7,4,0
1,6,42640349,20,1,0.500,CW,1,0.500000,-0.500000,0.234572247,0.002150549,0.232421697,0.233317937,0.231129313,-0.569583118,0.056180288,-0.625763406,1.654417634,0.014502976,1.639914658,0.005872133,-0.035232797,3,4,0
1,7,42641349,20,1,0.500,CW,1,0.500000,-0.500000,0.383623362,0.004805928,0.378817433,0.382369052,0.377525049,-1.139074922,0.025559504,-1.164634425,1.494098663,-0.023770265,1.517868929,0.011744265,-0.017616399,3,4,0
1,8,42642349,20,1,0.500,CW,1,0.500000,-0.500000,0.477696627,0.003971159,0.473725469,0.476442317,0.472433084,-1.636782169,-0.024057030,-1.612725139,1.027498126,-0.043606683,1.071104809,0.023488531,0.000000000,3,4,0
1,9,42643349,20,1,0.500,CW,1,0.500000,-0.500000,0.549778700,-0.000455606,0.550234306,0.548524390,0.548941921,-1.832993507,-0.058653661,-1.774339846,0.714038372,-0.031513217,0.745551589,0.029360663,0.005872133,3,4,0
1,10,42644349,20,1,0.500,CW,1,0.500000,-0.500000,0.615752161,-0.004736645,0.620488806,0.614497851,0.619196421,-1.706174016,-0.044444093,-1.661729923,0.824108243,0.009513549,0.814594694,0.023488531,0.000000000,3,4,0
1,11,42645349,20,1,0.500,CW,1,0.500000,-0.500000,0.690277696,-0.004664556,0.694942251,0.689023386,0.693649867,-1.335286379,0.010160328,-1.345446707,1.151925087,0.044542408,1.107382679,0.023488531,-0.011744265,3,4,0
1,12,42646349,20,1,0.500,CW,1,0.500000,-0.500000,0.789237916,-0.000846482,0.790084399,0.787983606,0.788792014,-0.928506434,0.053113163,-0.981619597,1.422313929,0.038931594,1.383382335,0.023488531,-0.029360663,3,4,0
1,13,42647349,20,1,0.500,CW,1,0.500000,-0.500000,0.883311152,0.003217330,0.880093823,0.882056842,0.878801438,-0.658117592,0.050601832,-0.708719425,1.374457479,0.002302159,1.372155320,0.035232797,-0.035232797,3,4,0
1,14,42648349,20,1,0.500,CW,1,0.500000,-0.500000,0.935845494,0.004984724,0.930860771,0.934591184,0.929568386,-0.569583118,0.011358876,-0.580941994,0.998784423,-0.032419978,1.031204401,0.023488531,-0.035232797,3,4,0
1,15,42649349,20,1,0.500,CW,1,0.500000,-0.500000,0.944397688,0.002927231,0.941470457,0.943143378,0.940178072,-0.574368775,-0.037842699,-0.536526076,0.608754158,-0.043715245,0.652469403,0.029360663,-0.046977062,3,4,0
1,16,42650349,20,1,0.500,CW,1,0.500000,-0.500000,0.932180345,-0.002000884,0.934181229,0.930926035,0.932888844,-0.545654893,-0.060326188,-0.485328705,0.510648429,-0.021258015,0.531906444,0.029360663,-0.041104928,3,4,0
1,17,42651349,20,1,0.500,CW,1,0.500000,-0.500000,0.938288987,-0.005253563,0.943542549,0.937034677,0.942250165,-0.481048673,-0.030337851,-0.450710822,0.675753176,0.022790575,0.652962601,0.029360663,-0.046977062,3,4,0
1,18,42652349,20,1,0.500,CW,1,0.500000,-0.500000,0.993266881,-0.003760080,0.997026961,0.992012571,0.995734576,-0.296801329,0.026705436,-0.323506765,0.893500030,0.047641511,0.845858519,0.041104928,-0.035232797,3,4,0
1,19,42653349,20,1,0.500,CW,1,0.500000,-0.500000,1.078788042,0.000490613,1.078297429,1.077533732,1.077005045,-0.055126261,0.057374071,-0.112500332,0.910249770,0.029699770,0.880550000,0.035232797,-0.041104928,3,4,0
1,20,42654349,20,1,0.500,CW,1,0.500000,-0.500000,1.144761443,0.004074086,1.140687357,1.143507133,1.139394973,0.112371318,0.041641162,0.070730156,0.635075271,-0.009592108,0.644667379,0.035232797,-0.035232797,3,4,0
1,21,42655349,20,1,0.500,CW,1,0.500000,-0.500000,1.175304651,0.004803771,1.170500880,1.174050341,1.169208495,0.157834947,-0.003821418,0.161656365,0.178046063,-0.038916467,0.216962530,0.029360663,-0.046977062,7,4,0
1,22,42656349,20,1,0.500,CW,1,0.500000,-0.500000,1.159422159,0.001591693,1.157830466,1.158167849,1.156538082,0.143478021,-0.049195696,0.192673717,-0.247876346,-0.040642006,-0.207234340,0.029360663,-0.046977062,3,4,0
1,23,42657349,20,1,0.500,CW,1,0.500000,-0.500000,1.092227101,-0.003383730,1.095610832,1.090972791,1.094318447,0.160227761,-0.056849524,0.217077284,-0.338803619,-0.008789308,-0.330014312,0.023488531,-0.041104928,3,4,0
1,24,42658349,20,1,0.500,CW,1,0.500000,-0.500000,1.047023058,-0.005299335,1.052322392,1.045768748,1.051030008,0.241583735,-0.013556272,0.255140007,-0.128235206,0.034202791,-0.162437997,0.029360663,-0.046977062,3,4,0
1,25,42659349,20,1,0.500,CW,1,0.500000,-0.500000,1.027475357,-0.002600707,1.030076064,1.026221047,1.028783679,0.392331600,0.040566265,0.351765335,0.036869522,0.046499918,-0.009630396,0.041104928,-0.046977062,3,4,0
1,26,42660349,20,1,0.500,CW,1,0.500000,-0.500000,1.027475357,0.001754889,1.025720468,1.026221047,1.024428084,0.454544932,0.057188428,0.397356503,-0.068414636,0.018509684,-0.086924320,0.035232797,-0.041104928,3,4,0
1,27,42661349,20,1,0.500,CW,1,0.500000,-0.500000,1.023810148,0.004671857,1.019138291,1.022555838,1.017845906,0.306189954,0.029961211,0.276228744,-0.334017962,-0.020458641,-0.313559321,0.035232797,-0.035232797,3,4,0
1,28,42662349,20,1,0.500,CW,1,0.500000,-0.500000,1.016479731,0.004243228,1.012236503,1.015225421,1.010944118,-0.079054475,-0.019091843,-0.059962631,-0.566121757,-0.042895481,-0.523226276,0.029360663,-0.035232797,3,4,0
1,29,42663349,20,1,0.500,CW,1,0.500000,-0.500000,0.972497463,0.000071544,0.972425919,0.971243153,0.971133534,-0.490619987,-0.057001903,-0.433618084,-0.661834717,-0.034327766,-0.627506950,0.029360663,-0.035232797,3,4,0
1,30,42664349,20,1,0.500,CW,1,0.500000,-0.500000,0.922406495,-0.004462747,0.926869242,0.921152185,0.925576857,-0.696402729,-0.048327515,-0.648075213,-0.575693071,0.004879239,-0.580572309,0.029360663,-0.035232797,3,4,0
1,31,42665349,20,1,0.500,CW,1,0.500000,-0.500000,0.878424227,-0.004892152,0.883316379,0.877169917,0.882023994,-0.593511343,0.004258638,-0.597769981,-0.405802637,0.042573967,-0.448376605,0.029360663,-0.035232797,3,4,0
1,32,42666349,20,1,0.500,CW,1,0.500000,-0.500000,0.845437467,-0.001297208,0.846734675,0.844183157,0.845442291,-0.184338674,0.050679431,-0.235018105,-0.369910300,0.041409661,-0.411319961,0.029360663,-0.029360663,3,4,0
1,33,42667349,20,1,0.500,CW,1,0.500000,-0.500000,0.827111542,0.002880669,0.824230873,0.825857232,0.822938488,0.287047416,0.052879683,0.234167733,-0.635513604,0.006398678,-0.641912282,0.029360663,-0.029360663,3,4,0
1,34,42668349,20,1,0.500,CW,1,0.500000,-0.500000,0.808785558,0.004963241,0.803822317,0.807531248,0.802529932,0.576578915,0.016268734,0.560310181,-1.102113962,-0.029741477,-1.072372485,0.023488531,-0.035232797,3,4,0
1,35,42669349,20,1,0.500,CW,1,0.500000,-0.500000,0.767246723,0.003313772,0.763932951,0.765992413,0.762640567,0.686648667,-0.033435594,0.720084260,-1.525643706,-0.044024492,-1.481619214,0.017616399,-0.035232797,3,4,0
1,36,42670349,20,1,0.500,CW,1,0.500000,-0.500000,0.695164680,-0.001493360,0.696658040,0.693910370,0.695365656,0.758433402,-0.060328141,0.818761542,-1.736212134,-0.024982970,-1.711229164,0.005872133,-0.041104928,3,4,0
1,37,42671349,20,1,0.500,CW,1,0.500000,-0.500000,0.613308668,-0.005132127,0.618440795,0.612054358,0.617148410,0.909181297,-0.035439040,0.944620337,-1.736212134,0.018482793,-1.754694927,0.011744265,-0.029360663,7,4,0
1,38,42672349,20,1,0.500,CW,1,0.500000,-0.500000,0.551000416,-0.004097099,0.555097515,0.549746106,0.553805131,1.258533359,0.021393375,1.237139984,-1.642891884,0.047075988,-1.689967872,0.005872133,-0.029360663,3,4,0
1,39,42673349,20,1,0.500,CW,1,0.500000,-0.500000,0.508239865,0.000046842,0.508193023,0.506985555,0.506900639,1.792132854,0.056448866,1.735683989,-1.650070310,0.033064251,-1.683134561,0.017616399,-0.023488531,3,4,0
1,40,42674349,20,1,0.500,CW,1,0.500000,-0.500000,0.472809702,0.003813360,0.468996342,0.471555392,0.467703957,2.222841024,0.044981648,2.177859376,-1.903709650,-0.005687671,-1.898021979,0.011744265,-0.023488531,3,4,0
1,41,42675349,20,1,0.500,CW,1,0.500000,-0.500000,0.444709867,0.004906252,0.439803615,0.443455557,0.438511231,2.344874859,0.001323652,2.343551206,-2.248275995,-0.037001924,-2.211274071,0.011744265,-0.017616399,3,4,0
1,42,42676349,20,1,0.500,CW,1,0.500000,-0.500000,0.395840675,0.002066040,0.393774635,0.394586365,0.392482250,2.153449059,-0.045732236,2.199181295,-2.379881382,-0.042034981,-2.337846401,0.000000000,-0.023488531,3,4,0
1,43,42677349,20,1,0.500,CW,1,0.500000,-0.500000,0.334754139,-0.002947596,0.337701735,0.333499829,0.336409351,1.749062061,-0.058594042,1.807656103,-2.214776516,-0.013159102,-2.201617414,0.000000000,-0.029360663,3,4,0
1,44,42678349,20,1,0.500,CW,1,0.500000,-0.500000,0.279776275,-0.005336447,0.285112722,0.278521965,0.283820337,1.337496638,-0.019381738,1.356878377,-1.822353721,0.030663622,-1.853017343,0.000000000,-0.017616399,3,4,0
1,45,42679349,20,1,0.500,CW,1,0.500000,-0.500000,0.237015709,-0.003010846,0.240026556,0.235761399,0.238734171,1.062321901,0.036294325,1.026027576,-1.307896852,0.047346450,-1.355243302,0.000000000,-0.017616399,3,4,0
1,46,42680349,20,1,0.500,CW,1,0.500000,-0.500000,0.215024561,0.001343574,0.213680986,0.213770251,0.212388602,0.844575107,0.057731587,0.786843520,-0.872403026,0.022413749,-0.894816775,0.000000000,-0.005872133,3,4,0
1,47,42681349,20,1,0.500,CW,1,0.500000,-0.500000,0.226020128,0.004503323,0.221516805,0.224765818,0.220224420,0.545472264,0.034136389,0.511335875,-0.657049000,-0.016968096,-0.640080904,0.000000000,-0.005872133,3,4,0
1,48,42682349,20,1,0.500,CW,1,0.500000,-0.500000,0.240680903,0.004473508,0.236207396,0.239426593,0.234915011,0.069300517,-0.014023471,0.083323989,-0.683370113,-0.041863582,-0.641506531,0.000000000,-0.011744265,3,4,0
1,49,42683349,20,1,0.500,CW,1,0.500000,-0.500000,0.224798411,0.000593531,0.224204880,0.223544101,0.222912495,-0.533690751,-0.054843830,-0.478846920,-0.779082954,-0.036798914,-0.742284040,0.000000000,-0.017616399,3,4,0
1,50,42684349,20,1,0.500,CW,1,0.500000,-0.500000,0.172263995,-0.004142394,0.176406389,0.171009685,0.175114004,-1.057718992,-0.051715921,-1.006003072,-0.704905510,0.000238441,-0.705143951,0.000000000,-0.011744265,3,4,0
1,51,42685349,20,1,0.500,CW,1,0.500000,-0.500000,0.116064399,-0.005075903,0.121140302,0.114810089,0.119847918,-1.399892569,-0.001720853,-1.398171716,-0.412981093,0.040166836,-0.453147929,0.000000000,-0.005872133,3,4,0
1,52,42686349,20,1,0.500,CW,1,0.500000,-0.500000,0.074525557,-0.001743516,0.076269074,0.073271247,0.074976689,-1.447749138,0.047753810,-1.495502948,0.024905454,0.043519838,-0.018614384,0.000000000,-0.005872133,3,4,0
1,53,42687349,20,1,0.500,CW,1,0.500000,-0.500000,0.079412483,0.002522276,0.076890207,0.078158173,0.075597822,-1.215645194,0.054753408,-1.270398602,0.362293422,0.010499405,0.351794017,0.000000000,-0.005872133,7,4,0
1,54,42688349,20,1,0.500,CW,1,0.500000,-0.500000,0.105068818,0.004902498,0.100166320,0.103814508,0.098873935,-0.964398861,0.021037096,-0.985435957,0.369471937,-0.026835260,0.396307197,0.000000000,0.000000000,3,4,0
1,55,42689349,20,1,0.500,CW,1,0.500000,-0.500000,0.124616504,0.003664186,0.120952317,0.123362194,0.119659933,-0.871078789,-0.028798693,-0.842280096,0.063190617,-0.043982212,0.107172828,0.000000000,-0.011744265,3,4,0
1,56,42690349,20,1,0.500,CW,1,0.500000,-0.500000,0.124616504,-0.000973346,0.125589850,0.123362194,0.124297465,-0.856721759,-0.059757328,-0.796964431,-0.298125625,-0.028426359,-0.269699265,0.000000000,-0.005872133,3,4,0
1,57,42691349,20,1,0.500,CW,1,0.500000,-0.500000,0.072082102,-0.004957965,0.077040067,0.070827792,0.075747682,-0.782544315,-0.040181063,-0.742363251,-0.441695005,0.014014298,-0.455709303,0.000000000,-0.005872133,3,4,0
1,58,42692349,20,1,0.500,CW,1,0.500000,-0.500000,0.020769419,-0.004401290,0.025170709,0.019515109,0.023878325,-0.591118574,0.015827369,-0.606945943,-0.353160530,0.046030793,-0.399191324,0.000000000,-0.005872133,3,4,0
1,59,42693349,20,1,0.500,CW,1,0.500000,-0.500000,-0.008552114,-0.000402394,-0.008149719,-0.009806424,-0.009442104,-0.179553032,0.055016448,-0.234569480,-0.121056736,0.036169008,-0.157225743,0.000000000,0.000000000,3,4,0
1,60,42694349,20,1,0.500,CW,1,0.500000,-0.500000,0.001221730,0.003525356,-0.002303625,-0.000032580,-0.003596010,0.356439263,0.047990630,0.308448632,0.077547535,-0.001691184,0.079238719,0.000000000,0.000000000,3,4,0
1,61,42695349,20,1,0.500,CW,1,0.500000,-0.500000,0.032986723,0.004966292,0.028020431,0.031732413,0.026728046,0.748862147,0.006422483,0.742439665,0.048833665,-0.034817648,0.083651313,0.000000000,0.000000000,3,4,0
1,62,42696349,20,1,0.500,CW,1,0.500000,-0.500000,0.054977871,0.002514814,0.052463057,0.053723561,0.051170672,0.911574185,-0.041909912,0.953484097,-0.178484499,-0.043061192,-0.135423308,0.000000000,-0.005872133,3,4,0
1,63,42697349,20,1,0.500,CW,1,0.500000,-0.500000,0.054977871,-0.002482066,0.057459938,0.053723561,0.056167553,0.878074646,-0.059755745,0.937830391,-0.360339016,-0.017349591,-0.342989425,0.000000000,-0.005872133,3,4,0
1,64,42698349,20,1,0.500,CW,1,0.500000,-0.500000,0.025656341,-0.005320899,0.030977239,0.024402031,0.029684855,0.758433402,-0.025025756,0.783459157,-0.324446648,0.026821115,-0.351267764,0.000000000,-0.005872133,3,4,0
1,65,42699349,20,1,0.500,CW,1,0.500000,-0.500000,-0.004886922,-0.003400671,-0.001486251,-0.006141232,-0.002778636,0.684255958,0.031631854,0.652624104,-0.054057717,0.047728928,-0.101786645,0.000000000,0.000000000,3,4,0
1,66,42700349,20,1,0.500,CW,1,0.500000,-0.500000,-0.012217305,0.000918887,-0.013136191,-0.013471615,-0.014428576,0.710576952,0.057793934,0.652783018,0.338365138,0.026176319,0.312188819,0.000000000,0.000000000,3,4,0
1,67,42701349,20,1,0.500,CW,1,0.500000,-0.500000,0.009773844,0.004302095,0.005471749,0.008519534,0.004179365,0.760826290,0.038057977,0.722768313,0.654217780,-0.013317614,0.667535393,0.000000000,0.000000000,3,4,0
1,68,42702349,20,1,0.500,CW,1,0.500000,-0.500000,0.047647487,0.004661161,0.042986327,0.046393177,0.041693942,0.679470301,-0.008891892,0.688362193,0.682931721,-0.040523148,0.723454869,0.000000000,0.000000000,3,4,0
1,69,42703349,20,1,0.500,CW,1,0.500000,-0.500000,0.080634207,0.001104724,0.079529483,0.079379897,0.078237098,0.387545913,-0.052211602,0.439757515,0.426899612,-0.038914927,0.465814539,0.000000000,0.000000000,7,4,0
1,70,42704349,20,1,0.500,CW,1,0.500000,-0.500000,0.075747289,-0.003779037,0.079526326,0.074492979,0.078233942,-0.045554969,-0.054576439,0.009021470,0.137368083,-0.004358532,0.141726615,0.000000000,0.000000000,3,4,0
1,71,42705349,20,1,0.500,CW,1,0.500000,-0.500000,0.032986723,-0.005212816,0.038199539,0.031732413,0.036907154,-0.404478371,-0.007713745,-0.396764626,0.041655224,0.037347107,0.004308117,0.005872133,0.000000000,3,4,0
1,72,42706349,20,1,0.500,CW,1,0.500000,-0.500000,-0.002443461,-0.002181655,-0.000261806,-0.003697771,-0.001554191,-0.598297000,0.044352678,-0.642649678,0.180438921,0.045231438,0.135207483,0.000000000,0.000000000,3,4,0
1,73,42707349,20,1,0.500,CW,1,0.500000,-0.500000,-0.004886922,0.002144095,-0.007031017,-0.006141232,-0.008323402,-0.579154432,0.056200804,-0.635355236,0.383828819,0.014570390,0.369258429,0.005872133,0.000000000,3,4,0
1,74,42708349,20,1,0.500,CW,1,0.500000,-0.500000,-0.004886922,0.004803986,-0.009690908,-0.006141232,-0.010983292,-0.406871200,0.025634573,-0.432505772,0.448435009,-0.023716634,0.472151643,0.005872133,0.000000000,3,4,0
1,75,42709349,20,1,0.500,CW,1,0.500000,-0.500000,0.018325957,0.003976029,0.014349928,0.017071647,0.013057543,-0.342264980,-0.023975345,-0.318289635,0.257009238,-0.043597521,0.300606759,0.005872133,0.000000000,3,4,0
1,76,42710349,20,1,0.500,CW,1,0.500000,-0.500000,0.039095376,-0.000446809,0.039542185,0.037841066,0.038249800,-0.504976928,-0.058630438,-0.446346491,-0.116271108,-0.031562859,-0.084708249,0.005872133,0.000000000,3,4,0
1,77,42711349,20,1,0.500,CW,1,0.500000,-0.500000,0.025656341,-0.004732477,0.030388818,0.024402031,0.029096433,-0.737080753,-0.044512668,-0.692568085,-0.362731814,0.009436642,-0.372168456,0.005872133,0.000000000,3,4,0
1,78,42712349,20,1,0.500,CW,1,0.500000,-0.500000,0.013439035,-0.004668690,0.018107725,0.012184725,0.016815341,-0.849543393,0.010062945,-0.859606338,-0.307696939,0.044513312,-0.352210251,0.000000000,0.000000000,3,4,0
1,79,42713349,20,1,0.500,CW,1,0.500000,-0.500000,0.006108652,-0.000854011,0.006962664,0.004854342,0.005670279,-0.770580173,0.053076696,-0.823656869,-0.089950047,0.038975729,-0.128925777,0.000000000,0.000000000,3,4,0
1,80,42714349,20,1,0.500,CW,1,0.500000,-0.500000,0.003665191,0.003211907,0.000453284,0.002410881,-0.000839100,-0.435585052,0.050642982,-0.486228034,0.094297305,0.002370225,0.091927080,0.000000000,0.005872133,3,4,0
1,81,42715349,20,1,0.500,CW,1,0.500000,-0.500000,0.032986723,0.004984695,0.028002028,0.031732413,0.026709644,-0.002484163,0.011441702,-0.013925866,0.087118827,-0.032377282,0.119496109,0.011744265,0.000000000,3,4,0
1,82,42716349,20,1,0.500,CW,1,0.500000,-0.500000,0.067195177,0.002933954,0.064261223,0.065940867,0.062968839,0.296618670,-0.037771367,0.334390037,-0.168913200,-0.043723322,-0.125189878,0.005872133,0.000000000,3,4,0
1,83,42717349,20,1,0.500,CW,1,0.500000,-0.500000,0.084299400,-0.001992560,0.086291960,0.083045090,0.084999576,0.358832061,-0.060330979,0.419163040,-0.532622218,-0.021322249,-0.511299969,0.005872133,0.000000000,3,4,0
1,84,42718349,20,1,0.500,CW,1,0.500000,-0.500000,0.075747289,-0.005251975,0.080999264,0.074492979,0.079706879,0.258333504,-0.030425517,0.288759021,-0.731226504,0.022720370,-0.753946874,0.000000000,0.000000000,3,4,0
1,85,42719349,20,1,0.500,CW,1,0.500000,-0.500000,0.056199603,-0.003765944,0.059965547,0.054945293,0.058673162,0.181763187,0.026619266,0.155143921,-0.616371036,0.047636030,-0.664007066,0.000000000,0.000000000,7,4,0
1,86,42720349,20,1,0.500,CW,1,0.500000,-0.500000,0.035430182,0.000483277,0.034946905,0.034175872,0.033654520,0.253547877,0.057362787,0.196185090,-0.300518423,0.029757760,-0.330276183,0.000000000,0.000000000,3,4,0
1,87,42721349,20,1,0.500,CW,1,0.500000,-0.500000,0.025656341,0.004069974,0.021586367,0.024402031,0.020293982,0.468901902,0.041699414,0.427202488,-0.039700784,-0.009527926,-0.030172858,0.005872133,0.000000000,3,4,0
1,88,42722349,20,1,0.500,CW,1,0.500000,-0.500000,0.042760566,0.004805830,0.037954736,0.041506256,0.036662351,0.689041555,-0.003735475,0.692777030,0.010548501,-0.038886841,0.049435342,0.000000000,0.000000000,3,4,0
1,89,42723349,20,1,0.500,CW,1,0.500000,-0.500000,0.058643062,0.001599784,0.057043277,0.057388752,0.055750893,0.746469259,-0.049141138,0.795610397,-0.173698828,-0.040668231,-0.133030597,0.005872133,0.000000000,3,4,0
1,90,42724349,20,1,0.500,CW,1,0.500000,-0.500000,0.080634207,-0.003376730,0.084010937,0.079379897,0.082718552,0.552650630,-0.056883325,0.609533956,-0.472801656,-0.008863382,-0.463938273,0.005872133,0.000000000,3,4,0
1,91,42725349,20,1,0.500,CW,1,0.500000,-0.500000,0.063529983,-0.005300378,0.068830361,0.062275673,0.067537976,0.212869868,-0.013654501,0.226524369,-0.633120775,0.034146520,-0.667267295,0.000000000,0.000000000,3,4,0
1,92,42726349,20,1,0.500,CW,1,0.500000,-0.500000,0.025656341,-0.002607686,0.028264027,0.024402031,0.026971642,-0.064697549,0.040498462,-0.105196010,-0.494337082,0.046517745,-0.540854827,0.000000000,0.000000000,3,4,0
1,93,42727349,20,1,0.500,CW,1,0.500000,-0.500000,-0.000000000,0.001748156,-0.001748156,-0.001254310,-0.003040540,-0.196302801,0.057201339,-0.253504140,-0.128235206,0.018575699,-0.146810905,0.000000000,0.000000000,3,4,0
1,94,42728349,20,1,0.500,CW,1,0.500000,-0.500000,-0.001221730,0.004669326,-0.005891057,-0.002476040,-0.007183441,-0.131696582,0.030032729,-0.161729311,0.163689151,-0.020401881,0.184091032,0.000000000,0.000000000,3,4,0
1,95,42729349,20,1,0.500,CW,1,0.500000,-0.500000,0.017104227,0.004247411,0.012856816,0.015849917,0.011564431,-0.004876977,-0.019008103,0.014131126,0.187617391,-0.042880878,0.230498269,0.005872133,0.000000000,3,4,0
1,96,42730349,20,1,0.500,CW,1,0.500000,-0.500000,0.039095376,0.000080302,0.039015073,0.037841066,0.037722689,-0.045554969,-0.056970001,0.011415031,-0.046879239,-0.034371805,-0.012507435,0.011744265,0.000000000,3,4,0
1,97,42731349,20,1,0.500,CW,1,0.500000,-0.500000,0.059864793,-0.004457780,0.064322573,0.058610483,0.063030188,-0.275265932,-0.048388146,-0.226877786,-0.377088785,0.004801803,-0.381890588,0.000000000,0.000000000,3,4,0
1,98,42732349,20,1,0.500,CW,1,0.500000,-0.500000,0.051312681,-0.004895583,0.056208264,0.050058371,0.054915879,-0.533690751,0.004159441,-0.537850192,-0.549372017,0.042537379,-0.591909396,0.005872133,0.000000000,3,4,0
1,99,42733349,20,1,0.500,CW,1,0.500000,-0.500000,0.023212880,-0.001304693,0.024517573,0.021958570,0.023225188,-0.689224243,0.050634664,-0.739858907,-0.420159608,0.041447936,-0.461607544,0.000000000,0.000000000,3,4,0
1,100,42734349,20,1,0.500,CW,1,0.500000,-0.500000,0.012217305,0.002874869,0.009342436,0.010962995,0.008050051,-0.624618053,0.052914287,-0.677532341,-0.068414636,0.006467081,-0.074881717,0.000000000,0.000000000,3,4,0
1,101,42735349,20,1,0.500,CW,1,0.500000,-0.500000,0.020769419,0.004962546,0.015806873,0.019515109,0.014514488,-0.330300838,0.016349449,-0.346650287,0.180438921,-0.029694865,0.210133786,0.000000000,0.000000000,7,4,0
1,102,42736349,20,1,0.500,CW,1,0.500000,-0.500000,0.042760566,0.003319916,0.039440650,0.041506256,0.038148265,-0.021626735,-0.033360074,0.011733339,0.132582456,-0.044026645,0.176609101,0.005872133,0.000000000,3,4,0
1,103,42737349,20,1,0.500,CW,1,0.500000,-0.500000,0.070860364,-0.001484779,0.072345142,0.069606054,0.071052758,0.112371318,-0.060323283,0.172694601,-0.168913200,-0.025042744,-0.143870456,0.005872133,0.000000000,3,4,0
1,104,42738349,20,1,0.500,CW,1,0.500000,-0.500000,0.085521132,-0.005129653,0.090650785,0.084266822,0.089358400,0.023836894,-0.035521166,0.059358060,-0.515872478,0.018409493,-0.534281971,0.005872133,0.000000000,3,4,0
1,105,42739349,20,1,0.500,CW,1,0.500000,-0.500000,0.062308252,-0.004102449,0.066410701,0.061053942,0.065118316,-0.131696582,0.021302541,-0.152999122,-0.647477746,0.047062487,-0.694540233,0.000000000,0.000000000,3,4,0
1,106,42740349,20,1,0.500,CW,1,0.500000,-0.500000,0.031764992,0.000039391,0.031725600,0.030510682,0.030433216,-0.165196106,0.056429155,-0.221625261,-0.494337082,0.033118234,-0.527455316,0.000000000,0.000000000,3,4,0
1,107,42741349,20,1,0.500,CW,1,0.500000,-0.500000,0.019547688,0.003808779,0.015738909,0.018293378,0.014446524,-0.021626735,0.045034585,-0.066661320,-0.154556245,-0.005621745,-0.148934500,0.000000000,0.000000000,3,4,0
1,108,42742349,20,1,0.500,CW,1,0.500000,-0.500000,0.017104227,0.004907599,0.012196629,0.015849917,0.010904244,0.255940706,0.001409107,0.254531599,0.101475738,-0.036967693,0.138443431,0.005872133,0.000000000,3,4,0
1,109,42743349,20,1,0.500,CW,1,0.500000,-0.500000,0.026878070,0.002073741,0.024804329,0.025623760,0.023511945,0.523936808,-0.045671355,0.569608163,0.087118827,-0.042055086,0.129173913,0.000000000,0.000000000,3,4,0
1,110,42744349,20,1,0.500,CW,1,0.500000,-0.500000,0.051312681,-0.002940064,0.054252745,0.050058371,0.052960360,0.583757401,-0.058618200,0.642375600,-0.188055784,-0.013230525,-0.174825258,0.005872133,0.000000000,3,4,0
1,111,42745349,20,1,0.500,CW,1,0.500000,-0.500000,0.056199603,-0.005336622,0.061536225,0.054945293,0.060243840,0.368403316,-0.019477470,0.387880785,-0.508694053,0.030601945,-0.539295998,0.005872133,0.000000000,3,4,0
1,112,42746349,20,1,0.500,CW,1,0.500000,-0.500000,0.030543262,-0.003017522,0.033560784,0.029288952,0.032268399,0.090835929,0.036219713,0.054616216,-0.613978207,0.047356666,-0.661334873,0.000000000,0.000000000,3,4,0
1,113,42747349,20,1,0.500,CW,1,0.500000,-0.500000,0.007330383,0.001336599,0.005993783,0.006076073,0.004701399,-0.069483183,0.057736606,-0.127219789,-0.434516519,0.022477727,-0.456994247,0.000000000,0.000000000,3,4,0
1,114,42748349,20,1,0.500,CW,1,0.500000,-0.500000,-0.015882496,0.004500232,-0.020382728,-0.017136806,-0.021675113,-0.071876019,0.034203901,-0.106079920,-0.080378778,-0.016908510,-0.063470268,0.000000000,0.000000000,3,4,0
1,115,42749349,20,1,0.500,CW,1,0.500000,-0.500000,-0.015882496,0.004476986,-0.020359482,-0.017136806,-0.021651867,0.078871801,-0.013938354,0.092810156,0.192403018,-0.041843736,0.234246754,0.000000000,0.000000000,3,4,0
1,116,42750349,20,1,0.500,CW,1,0.500000,-0.500000,0.013439035,0.000602155,0.012836880,0.012184725,0.011544496,0.215262681,-0.054803750,0.270066431,0.185224578,-0.036837118,0.222061696,0.005872133,0.000000000,3,4,0
1,117,42751349,20,1,0.500,CW,1,0.500000,-0.500000,0.043982297,-0.004136680,0.048118977,0.042727987,0.046826593,0.150656506,-0.051768003,0.202424510,-0.113878272,0.000161328,-0.114039601,0.005872133,0.000000000,7,4,0
1,118,42752349,20,1,0.500,CW,1,0.500000,-0.500000,0.058643062,-0.005078576,0.063721638,0.057388752,0.062429253,-0.112554006,-0.001820806,-0.110733201,-0.451266289,0.040123141,-0.491389430,0.005872133,0.000000000,3,4,0
1,119,42753349,20,1,0.500,CW,1,0.500000,-0.500000,0.043982297,-0.001750896,0.045733194,0.042727987,0.044440809,-0.375764519,0.047700968,-0.423465487,-0.542193532,0.043551711,-0.585745243,0.000000000,0.000000000,3,4,0
1,120,42754349,20,1,0.500,CW,1,0.500000,-0.500000,0.026878070,0.002516129,0.024361941,0.025623760,0.023069556,-0.495405614,0.054781084,-0.550186699,-0.350767732,0.010567596,-0.361335328,0.000000000,0.000000000,3,4,0
1,121,42755349,20,1,0.500,CW,1,0.500000,-0.500000,0.007330383,0.004901161,0.002429222,0.006076073,0.001136837,-0.390121430,0.021115201,-0.411236631,-0.003808434,-0.026784980,0.022976546,0.000000000,0.000000000,3,4,0
1,122,42756349,20,1,0.500,CW,1,0.500000,-0.500000,0.019547688,0.003669706,0.015877982,0.018293378,0.014585597,-0.124518119,-0.028719712,-0.095798407,0.218724072,-0.043978578,0.262702650,0.005872133,0.000000000,3,4,0
1,123,42757349,20,1,0.500,CW,1,0.500000,-0.500000,0.043982297,-0.000964607,0.044946905,0.042727987,0.043654520,0.076478988,-0.059743049,0.136222037,0.144546598,-0.028481213,0.173027811,0.005872133,0.000000000,3,4,0
1,124,42758349,20,1,0.500,CW,1,0.500000,-0.500000,0.072082102,-0.004954622,0.077036724,0.070827792,0.075744340,0.090835929,-0.040256755,0.131092684,-0.188055784,0.013938754,-0.201994538,0.005872133,0.000000000,3,4,0
1,125,42759349,20,1,0.500,CW,1,0.500000,-0.500000,0.084299400,-0.004406059,0.088705459,0.083045090,0.087413075,-0.067090370,0.015732761,-0.082823131,-0.523050964,0.046009343,-0.569060307,0.000000000,0.000000000,3,4,0
1,126,42760349,20,1,0.500,CW,1,0.500000,-0.500000,0.053756140,-0.000409910,0.054166051,0.052501830,0.052873666,-0.236980781,0.054988270,-0.291969051,-0.609192610,0.036218333,-0.645410943,0.000000000,0.000000000,3,4,0
1,127,42761349,20,1,0.500,CW,1,0.500000,-0.500000,0.021991149,0.003520335,0.018470814,0.020736839,0.017178429,-0.272873133,0.048037827,-0.320910961,-0.444087803,-0.001623947,-0.442463856,0.000000000,0.000000000,3,4,0
1,128,42762349,20,1,0.500,CW,1,0.500000,-0.500000,-0.001221730,0.004966937,-0.006188668,-0.002476040,-0.007481052,-0.093411423,0.006506879,-0.099918302,-0.142592162,-0.034779036,-0.107813126,0.000000000,0.000000000,3,4,0
1,129,42763349,20,1,0.500,CW,1,0.500000,-0.500000,-0.000000000,0.002522054,-0.002522054,-0.001254310,-0.003814438,0.220048353,-0.041843408,0.261891761,0.070369057,-0.043075199,0.113444257,0.000000000,0.000000000,3,4,0
1,130,42764349,20,1,0.500,CW,1,0.500000,-0.500000,0.019547688,-0.002474089,0.022021776,0.018293378,0.020729392,0.428223908,-0.059770138,0.487994046,0.000977211,-0.017417688,0.018394899,0.005872133,0.000000000,3,4,0
1,131,42765349,20,1,0.500,CW,1,0.500000,-0.500000,0.037873644,-0.005320188,0.043193833,0.036619334,0.041901448,0.404295683,-0.025117924,0.429413607,-0.334017962,0.026754756,-0.360772718,0.000000000,0.000000000,3,4,0
1,132,42766349,20,1,0.500,CW,1,0.500000,-0.500000,0.043982297,-0.003406971,0.047389269,0.042727987,0.046096884,0.198512957,0.031551059,0.166961897,-0.664227426,0.047731298,-0.711958724,0.000000000,0.000000000,3,4,0
1,133,42767349,20,1,0.500,CW,1,0.500000,-0.500000,0.014660765,0.000911709,0.013749056,0.013406455,0.012456672,-0.028805211,0.057790822,-0.086596033,-0.757547557,0.026237604,-0.783785162,0.000000000,0.000000000,7,4,0
1,134,42768349,20,1,0.500,CW,1,0.500000,-0.500000,-0.020769419,0.004298474,-0.025067893,-0.022023729,-0.026360278,-0.143660694,0.038121036,-0.181781731,-0.578085899,-0.013255533,-0.564830366,0.000000000,0.000000000,3,4,0
1,135,42769349,20,1,0.500,CW,1,0.500000,-0.500000,-0.039095376,0.004663924,-0.043759300,-0.040349686,-0.045051685,-0.050340615,-0.008806051,-0.041534564,-0.233519405,-0.040498265,-0.193021141,0.000000000,0.000000000,3,4,0
1,136,42770349,20,1,0.500,CW,1,0.500000,-0.500000,-0.034208454,0.001113122,-0.035321576,-0.035462764,-0.036613960,0.165013447,-0.052163914,0.217177362,0.056012139,-0.038947136,0.094959275,0.000000000,0.000000000,3,4,0
1,137,42771349,20,1,0.500,CW,1,0.500000,-0.500000,-0.003665191,-0.003772639,0.000107448,-0.004919501,-0.001184937,0.272690475,-0.054619485,0.327309960,0.070369057,-0.004434498,0.074803556,0.000000000,0.000000000,3,4,0
1,138,42772349,20,1,0.500,CW,1,0.500000,-0.500000,0.031764992,-0.005214686,0.036979678,0.030510682,0.035687293,0.184156030,-0.007813367,0.191969398,-0.207198367,0.037296789,-0.244495155,0.000000000,0.000000000,3,4,0
1,139,42773349,20,1,0.500,CW,1,0.500000,-0.500000,0.039095376,-0.002188866,0.041284242,0.037841066,0.039991857,-0.052733429,0.044292083,-0.097025512,-0.515872478,0.045256429,-0.561128908,0.000000000,0.000000000,3,4,0
1,140,42774349,20,1,0.500,CW,1,0.500000,-0.500000,0.008552114,0.002137636,0.006414478,0.007297804,0.005122093,-0.272873133,0.056221196,-0.329094329,-0.602014065,0.014637785,-0.616651850,0.000000000,0.000000000,3,4,0
1,141,42775349,20,1,0.500,CW,1,0.500000,-0.500000,-0.012217305,0.004802033,-0.017019337,-0.013471615,-0.018311722,-0.354229122,0.025709586,-0.379938709,-0.424945235,-0.023662949,-0.401282286,0.000000000,0.000000000,3,4,0
1,142,42776349,20,1,0.500,CW,1,0.500000,-0.500000,-0.019547688,0.003980888,-0.023528576,-0.020801998,-0.024820961,-0.234587967,-0.023893620,-0.210694347,-0.109092630,-0.043588266,-0.065504364,0.000000000,0.000000000,3,4,0
1,143,42777349,20,1,0.500,CW,1,0.500000,-0.500000,-0.018325957,-0.000438012,-0.017887944,-0.019580267,-0.019180329,0.011872791,-0.058607065,0.070479856,0.142153710,-0.031612410,0.173766120,0.000000000,0.000000000,3,4,0
1,144,42778349,20,1,0.500,CW,1,0.500000,-0.500000,0.012217305,-0.004728295,0.016945600,0.010962995,0.015653215,0.165013447,-0.044581115,0.209594562,0.134975269,0.009359719,0.125615551,0.000000000,0.000000000,3,4,0
1,145,42779349,20,1,0.500,CW,1,0.500000,-0.500000,0.042760566,-0.004672814,0.047433380,0.041506256,0.046140995,0.093228742,0.009965523,0.083263219,-0.166520387,0.044484089,-0.211004476,0.000000000,0.000000000,3,4,0
1,146,42780349,20,1,0.500,CW,1,0.500000,-0.500000,0.043982297,-0.000861540,0.044843837,0.042727987,0.043551452,-0.117339648,0.053040090,-0.170379738,-0.496729910,0.039019772,-0.535749682,0.000000000,0.000000000,3,4,0
1,147,42781349,20,1,0.500,CW,1,0.500000,-0.500000,0.014660765,0.003206478,0.011454287,0.013406455,0.010161903,-0.263301849,0.050684027,-0.313985876,-0.570907414,0.002438300,-0.573345714,0.000000000,0.000000000,3,4,0
1,148,42782349,20,1,0.500,CW,1,0.500000,-0.500000,-0.014660765,0.004984654,-0.019645420,-0.015915075,-0.020937805,-0.268087476,0.011524498,-0.279611975,-0.391445696,-0.032334519,-0.359111177,0.000000000,0.000000000,3,4,0
1,149,42783349,20,1,0.500,CW,1,0.500000,-0.500000,-0.036651913,0.002940667,-0.039592581,-0.037906223,-0.040884965,-0.088625774,-0.037699959,-0.050925815,-0.106699817,-0.043731300,-0.062968517,0.000000000,0.000000000,7,4,0
1,150,42784349,20,1,0.500,CW,1,0.500000,-0.500000,-0.028099801,-0.001984230,-0.026115571,-0.029354111,-0.027407956,0.196120098,-0.060335608,0.256455706,0.115832694,-0.021386413,0.137219107,0.000000000,0.000000000,3,4,0
1,151,42785349,20,1,0.500,CW,1,0.500000,-0.500000,0.006108652,-0.005250373,0.011359026,0.004854342,0.010066641,0.361224890,-0.030513097,0.391737987,0.091904491,0.022650107,0.069254384,0.000000000,0.000000000,3,4,0
1,152,42786349,20,1,0.500,CW,1,0.500000,-0.500000,0.034208454,-0.003771800,0.037980254,0.032954144,0.036687869,0.279868901,0.026533011,0.253335890,-0.190448597,0.047630416,-0.238079013,0.000000000,0.000000000,3,4,0
1,153,42787349,20,1,0.500,CW,1,0.500000,-0.500000,0.034208454,0.000475939,0.033732515,0.032954144,0.032440130,0.047765121,0.057351364,-0.009586243,-0.487158597,0.029815689,-0.516974286,0.000000000,0.000000000,3,4,0
1,154,42788349,20,1,0.500,CW,1,0.500000,-0.500000,0.010995574,0.004065854,0.006929720,0.009741264,0.005637336,-0.141267881,0.041757582,-0.183025463,-0.539800704,-0.009463712,-0.530336992,0.000000000,0.000000000,3,4,0
1,155,42789349,20,1,0.500,CW,1,0.500000,-0.500000,-0.020769419,0.004807877,-0.025577296,-0.022023729,-0.026869681,-0.196302801,-0.003649536,-0.192653266,-0.317268193,-0.038857136,-0.278411057,0.000000000,0.000000000,3,4,0
1,156,42790349,20,1,0.500,CW,1,0.500000,-0.500000,-0.039095376,0.001607870,-0.040703245,-0.040349686,-0.041995630,-0.045554969,-0.049086469,0.003531499,0.005762838,-0.040694353,0.046457191,0.000000000,0.000000000,3,4,0
1,157,42791349,20,1,0.500,CW,1,0.500000,-0.500000,-0.023212880,-0.003369721,-0.019843159,-0.024467190,-0.021135544,0.196120098,-0.056916968,0.253037066,0.211545601,-0.008937419,0.220483020,0.000000000,0.000000000,3,4,0
1,158,42792349,20,1,0.500,CW,1,0.500000,-0.500000,0.008552114,-0.005301407,0.013853521,0.007297804,0.012561136,0.299011469,-0.013752697,0.312764166,0.149332225,0.034090153,0.115242072,0.005872133,0.000000000,3,4,0
1,159,42793349,20,1,0.500,CW,1,0.500000,-0.500000,0.047647487,-0.002614661,0.050262148,0.046393177,0.048969764,0.191334471,0.040430540,0.150903931,-0.152163446,0.046535448,-0.198698894,0.000000000,0.000000000,3,4,0
1,160,42794349,20,1,0.500,CW,1,0.500000,-0.500000,0.042760566,0.001741418,0.041019148,0.041506256,0.039726763,-0.052733429,0.057214120,-0.109947549,-0.460837573,0.018641685,-0.479479258,0.000000000,0.000000000,3,4,0
1,161,42795349,20,1,0.500,CW,1,0.500000,-0.500000,0.010995574,0.004666785,0.006328789,0.009741264,0.005036404,-0.253730536,0.030104184,-0.283834720,-0.525443733,-0.020345071,-0.505098662,0.000000000,0.000000000,3,4,0
1,162,42796349,20,1,0.500,CW,1,0.500000,-0.500000,-0.019547688,0.004251583,-0.023799271,-0.020801998,-0.025091655,-0.308765471,-0.018924334,-0.289841137,-0.312482566,-0.042866185,-0.269616380,0.000000000,0.000000000,3,4,0
1,163,42797349,20,1,0.500,CW,1,0.500000,-0.500000,-0.034208454,0.000089059,-0.034297513,-0.035462764,-0.035589898,-0.155624807,-0.056937957,-0.098686849,-0.006201248,-0.034415747,0.028214500,0.000000000,0.000000000,3,4,0
1,164,42798349,20,1,0.500,CW,1,0.500000,-0.500000,-0.017104227,-0.004452800,-0.012651427,-0.018358537,-0.013943812,0.090835929,-0.048448639,0.139284568,0.170867622,0.004724366,0.166143256,0.000000000,0.000000000,3,4,0
1,165,42799349,20,1,0.500,CW,1,0.500000,-0.500000,0.009773844,-0.004899001,0.014672845,0.008519534,0.013380460,0.200905770,0.004060223,0.196845547,0.079940349,0.042500669,0.037439680,0.000000000,0.000000000,7,4,0
1,166,42800349,20,1,0.500,CW,1,0.500000,-0.500000,0.040317103,-0.001312177,0.041629280,0.039062793,0.040336895,0.083657466,0.050589760,0.033067705,-0.228733763,0.041486108,-0.270219871,0.000000000,0.000000000,3,4,0
1,167,42801349,20,1,0.500,CW,1,0.500000,-0.500000,0.035430182,0.002869062,0.032561120,0.034175872,0.031268735,-0.136482224,0.052948779,-0.189431003,-0.518265307,0.006535484,-0.524800791,0.000000000,0.000000000,3,4,0
1,168,42802349,20,1,0.500,CW,1,0.500000,-0.500000,0.002443461,0.004961840,-0.002518380,0.001189151,-0.003810764,-0.277658761,0.016430125,-0.294088886,-0.542193532,-0.029648189,-0.512545343,0.000000000,0.000000000,3,4,0
1,169,42803349,20,1,0.500,CW,1,0.500000,-0.500000,-0.021991149,0.003326050,-0.025317198,-0.023245459,-0.026609583,-0.280051589,-0.033284490,-0.246767099,-0.310089737,-0.044028700,-0.266061037,0.000000000,0.000000000,3,4,0
1,170,42804349,20,1,0.500,CW,1,0.500000,-0.500000,-0.036651913,-0.001476194,-0.035175719,-0.037906223,-0.036468104,-0.093411423,-0.060318266,-0.033093157,-0.022951014,-0.025102440,0.002151425,0.000000000,0.000000000,3,4,0
1,171,42805349,20,1,0.500,CW,1,0.500000,-0.500000,-0.021991149,-0.005127165,-0.016863984,-0.023245459,-0.018156368,0.172191888,-0.035603192,0.207795081,0.125403985,0.018336149,0.107067837,0.000000000,0.000000000,3,4,0
1,172,42806349,20,1,0.500,CW,1,0.500000,-0.500000,0.010995574,-0.004107790,0.015103364,0.009741264,0.013810980,0.291833043,0.021211636,0.270621407,0.022512643,0.047048853,-0.024536210,0.000000000,0.000000000,3,4,0
1,173,42807349,20,1,0.500,CW,1,0.500000,-0.500000,0.041538838,0.000031939,0.041506899,0.040284528,0.040214515,0.172191888,0.056409304,0.115782584,-0.267018914,0.033172144,-0.300191058,0.000000000,0.000000000,3,4,0
1,174,42808349,20,1,0.500,CW,1,0.500000,-0.500000,0.029321531,0.003804190,0.025517341,0.028067221,0.024224957,-0.064697549,0.045087429,-0.109784978,-0.530229449,-0.005555794,-0.524673656,0.000000000,0.000000000,3,4,0
1,175,42809349,20,1,0.500,CW,1,0.500000,-0.500000,0.001221730,0.004908933,-0.003687203,-0.000032580,-0.004979588,-0.208266899,0.001494548,-0.209761447,-0.523050964,-0.036933386,-0.486117578,0.000000000,0.000000000,3,4,0
1,176,42810349,20,1,0.500,CW,1,0.500000,-0.500000,-0.010995574,0.002081435,-0.013077009,-0.012249884,-0.014369394,-0.205874085,-0.045610374,-0.160263712,-0.250269175,-0.042075090,-0.208194085,0.000000000,0.000000000,3,4,0
1,177,42811349,20,1,0.500,CW,1,0.500000,-0.500000,-0.031764992,-0.002932523,-0.028832469,-0.033019302,-0.030124853,-0.012055445,-0.058642196,0.046586751,0.063190617,-0.013301898,0.076492515,0.000000000,0.000000000,3,4,0
1,178,42812349,20,1,0.500,CW,1,0.500000,-0.500000,-0.013439035,-0.005336783,-0.008102252,-0.014693345,-0.009394637,0.241583735,-0.019573151,0.261156885,0.190010205,0.030540185,0.159470020,0.000000000,0.000000000,3,4,0
1,179,42813349,20,1,0.500,CW,1,0.500000,-0.500000,0.023212880,-0.003024191,0.026237071,0.021958570,0.024944686,0.318154067,0.036144993,0.282009074,0.034476709,0.047366754,-0.012890045,0.000000000,0.000000000,3,4,0
1,180,42814349,20,1,0.500,CW,1,0.500000,-0.500000,0.043982297,0.001329620,0.042652677,0.042727987,0.041360292,0.169799075,0.057741491,0.112057584,-0.281375855,0.022541666,-0.303917521,0.000000000,0.000000000,3,4,0
1,181,42815349,20,1,0.500,CW,1,0.500000,-0.500000,0.032986723,0.004497132,0.028489591,0.031732413,0.027197206,-0.067090370,0.034271343,-0.101361712,-0.542193532,-0.016848880,-0.525344652,0.000000000,0.000000000,7,4,0
1,182,42816349,20,1,0.500,CW,1,0.500000,-0.500000,0.009773844,0.004480453,0.005293391,0.008519534,0.004001006,-0.229802325,-0.013853220,-0.215949106,-0.532622218,-0.041823803,-0.490798415,0.000000000,0.000000000,3,4,0
1,183,42817349,20,1,0.500,CW,1,0.500000,-0.500000,-0.021991149,0.000610775,-0.022601924,-0.023245459,-0.023894309,-0.232195139,-0.054763538,-0.177431600,-0.250269175,-0.036875223,-0.213393952,0.000000000,0.000000000,3,4,0
1,184,42818349,20,1,0.500,CW,1,0.500000,-0.500000,-0.035430182,-0.004130954,-0.031299227,-0.036684492,-0.032591612,-0.047947783,-0.051819939,0.003872156,0.065583430,0.000084228,0.065499202,0.000000000,0.000000000,3,4,0
1,185,42819349,20,1,0.500,CW,1,0.500000,-0.500000,-0.008552114,-0.005081237,-0.003470877,-0.009806424,-0.004763262,0.181763187,-0.001920762,0.183683949,0.180438921,0.040079331,0.140359589,0.000000000,0.000000000,3,4,0
1,186,42820349,20,1,0.500,CW,1,0.500000,-0.500000,0.020769419,-0.001758274,0.022527693,0.019515109,0.021235308,0.236798108,0.047647993,0.189150115,0.012941315,0.043583473,-0.030642158,0.005872133,0.000000000,3,4,0
1,187,42821349,20,1,0.500,CW,1,0.500000,-0.500000,0.039095376,0.002509978,0.036585398,0.037841066,0.035293013,0.052550767,0.054808642,-0.002257876,-0.307696939,0.010635778,-0.318332717,0.000000000,0.000000000,3,4,0
1,188,42822349,20,1,0.500,CW,1,0.500000,-0.500000,0.029321531,0.004899814,0.024421717,0.028067221,0.023129332,-0.189124331,0.021193259,-0.210317590,-0.535015106,-0.026734641,-0.508280466,0.000000000,0.000000000,3,4,0
1,189,42823349,20,1,0.500,CW,1,0.500000,-0.500000,0.002443461,0.003675215,-0.001231754,0.001189151,-0.002524138,-0.303979814,-0.028640680,-0.275339134,-0.482372969,-0.043974850,-0.438398119,0.000000000,0.000000000,3,4,0
1,190,42824349,20,1,0.500,CW,1,0.500000,-0.500000,-0.029321531,-0.000955867,-0.028365664,-0.030575841,-0.029658049,-0.260908991,-0.059728614,-0.201180377,-0.190448597,-0.028535981,-0.161912616,0.000000000,0.000000000,3,4,0
1,191,42825349,20,1,0.500,CW,1,0.500000,-0.500000,-0.032986723,-0.004951265,-0.028035457,-0.034241033,-0.029327842,-0.052733429,-0.040332332,-0.012401097,0.103868589,0.013863180,0.090005409,0.000000000,0.000000000,3,4,0
1,192,42826349,20,1,0.500,CW,1,0.500000,-0.500000,-0.012217305,-0.004410818,-0.007806487,-0.013471615,-0.009098872,0.191334471,0.015638099,0.175696372,0.185224578,0.045987761,0.139236817,0.000000000,0.000000000,3,4,0
1,193,42827349,20,1,0.500,CW,1,0.500000,-0.500000,0.025656341,-0.000417427,0.026073768,0.024402031,0.024781383,0.267904788,0.054959950,0.212944838,0.003370043,0.036267575,-0.032897533,0.000000000,0.000000000,3,4,0
1,194,42828349,20,1,0.500,CW,1,0.500000,-0.500000,0.053756140,0.003515307,0.050240833,0.052501830,0.048948448,0.107585691,0.048084925,0.059500766,-0.326839507,-0.001556692,-0.325282814,0.000000000,0.000000000,3,4,0
1,195,42829349,20,1,0.500,CW,1,0.500000,-0.500000,0.036651913,0.004967571,0.031684342,0.035397603,0.030391957,-0.138875052,0.006591253,-0.145466306,-0.570907414,-0.034740352,-0.536167062,0.000000000,0.000000000,3,4,0
1,196,42830349,20,1,0.500,CW,1,0.500000,-0.500000,0.001221730,0.002529284,-0.001307554,-0.000032580,-0.002599939,-0.265694648,-0.041776816,-0.223917832,-0.513479650,-0.043089106,-0.470390544,0.000000000,0.000000000,3,4,0
1,197,42831349,20,1,0.500,CW,1,0.500000,-0.500000,-0.025656341,-0.002466104,-0.023190236,-0.026910651,-0.024482621,-0.203481257,-0.059784368,-0.143696889,-0.202412724,-0.017485725,-0.184927000,0.000000000,0.000000000,7,4,0
1,198,42832349,20,1,0.500,CW,1,0.500000,-0.500000,-0.029321531,-0.005319463,-0.024002068,-0.030575841,-0.025294452,0.011872791,-0.025210024,0.037082815,0.106261402,0.026688325,0.079573078,0.000000000,0.000000000,3,4,0
1,199,42833349,20,1,0.500,CW,1,0.500000,-0.500000,-0.006108652,-0.003413265,-0.002695387,-0.007362962,-0.003987772,0.227226824,0.031470168,0.195756656,0.166081995,0.047733536,0.118348459,0.000000000,0.000000000,3,4,0
1,200,42834349,20,1,0.500,CW,1,0.500000,-0.500000,0.026878070,0.000904528,0.025973542,0.025623760,0.024681157,0.284654528,0.057787573,0.226866954,-0.049272072,0.026298839,-0.075570911,0.000000000,0.000000000,3,4,0
1,201,42835349,20,1,0.500,CW,1,0.500000,-0.500000,0.050090946,0.004294845,0.045796101,0.048836636,0.044503717,0.107585691,0.038184018,0.069401673,-0.362731814,-0.013193413,-0.349538401,0.000000000,0.000000000,3,4,0
1,202,42836349,20,1,0.500,CW,1,0.500000,-0.500000,0.028099801,0.004666676,0.023433125,0.026845491,0.022140741,-0.136482224,-0.008720204,-0.127762020,-0.556550503,-0.040473299,-0.516077203,0.000000000,0.000000000,3,4,0
1,203,42837349,20,1,0.500,CW,1,0.500000,-0.500000,-0.003665191,0.001121515,-0.004786706,-0.004919501,-0.006079091,-0.265694648,-0.052116105,-0.213578543,-0.484765798,-0.038979245,-0.445786553,0.000000000,0.000000000,3,4,0
1,204,42838349,20,1,0.500,CW,1,0.500000,-0.500000,-0.025656341,-0.003766231,-0.021890110,-0.026910651,-0.023182495,-0.215445384,-0.054662377,-0.160783007,-0.176091686,-0.004510439,-0.171581247,0.000000000,0.000000000,3,4,0
1,205,42839349,20,1,0.500,CW,1,0.500000,-0.500000,-0.032986723,-0.005216543,-0.027770180,-0.034241033,-0.029062565,-0.000091350,-0.007912975,0.007821625,0.132582456,0.037246365,0.095336091,0.005872133,0.000000000,3,4,0
1,206,42840349,20,1,0.500,CW,1,0.500000,-0.500000,-0.008552114,-0.002196073,-0.006356040,-0.009806424,-0.007648425,0.208084241,0.044231362,0.163852878,0.187617391,0.045281302,0.142336089,0.000000000,0.000000000,3,4,0
1,207,42841349,20,1,0.500,CW,1,0.500000,-0.500000,0.028099801,0.002131172,0.025968630,0.026845491,0.024676245,0.234405294,0.056241463,0.178163831,-0.049272072,0.014705163,-0.063977234,0.000000000,0.000000000,3,4,0
1,208,42842349,20,1,0.500,CW,1,0.500000,-0.500000,0.042760566,0.004800070,0.037960496,0.041506256,0.036668111,0.054943599,0.025784545,0.029159054,-0.381874412,-0.023609209,-0.358265203,0.000000000,0.000000000,3,4,0
1,209,42843349,20,1,0.500,CW,1,0.500000,-0.500000,0.019547688,0.003985736,0.015561952,0.018293378,0.014269567,-0.167588934,-0.023811856,-0.143777079,-0.568514585,-0.043578920,-0.524935666,0.000000000,0.000000000,3,4,0
1,210,42844349,20,1,0.500,CW,1,0.500000,-0.500000,0.003665191,-0.000429215,0.004094407,0.002410881,0.002802022,-0.277658761,-0.058583545,-0.219075215,-0.472801656,-0.031661869,-0.441139786,0.000000000,0.000000000,3,4,0
1,211,42845349,20,1,0.500,CW,1,0.500000,-0.500000,-0.018325957,-0.004724100,-0.013601857,-0.019580267,-0.014894241,-0.191517144,-0.044649436,-0.146867709,-0.149770617,0.009282780,-0.159053398,0.000000000,0.000000000,3,4,0
1,212,42846349,20,1,0.500,CW,1,0.500000,-0.500000,-0.029321531,-0.004676926,-0.024644605,-0.030575841,-0.025936990,0.042979475,0.009868064,0.033111412,0.142153710,0.044454739,0.097698971,0.000000000,0.000000000,3,4,0
1,213,42847349,20,1,0.500,CW,1,0.500000,-0.500000,0.001221730,-0.000869068,0.002090799,-0.000032580,0.000798414,0.227226824,0.053003344,0.174223479,0.161296338,0.039063722,0.122232616,0.000000000,0.000000000,7,4,0
1,214,42848349,20,1,0.500,CW,1,0.500000,-0.500000,0.031764992,0.003201042,0.028563949,0.030510682,0.027271565,0.236798108,0.050724965,0.186073143,-0.094735689,0.002506386,-0.097242075,0.000000000,0.000000000,3,4,0
1,215,42849349,20,1,0.500,CW,1,0.500000,-0.500000,0.043982297,0.004984603,0.038997694,0.042727987,0.037705310,0.059729226,0.011607263,0.048121963,-0.422552407,-0.032291689,-0.390260718,0.005872133,0.000000000,3,4,0
1,216,42850349,20,1,0.500,CW,1,0.500000,-0.500000,0.025656341,0.002947372,0.022708969,0.024402031,0.021416584,-0.169981748,-0.037628476,-0.132353272,-0.580478668,-0.043739178,-0.536739490,0.000000000,0.000000000,3,4,0
1,217,42851349,20,1,0.500,CW,1,0.500000,-0.500000,-0.001221730,-0.001975896,0.000754165,-0.002476040,-0.000538219,-0.270480305,-0.060340075,-0.210140230,-0.468016028,-0.021450506,-0.446565522,0.000000000,0.000000000,3,4,0
1,218,42852349,20,1,0.500,CW,1,0.500000,-0.500000,-0.026878070,-0.005248756,-0.021629314,-0.028132380,-0.022921698,-0.167588934,-0.030600593,-0.136988341,-0.147377789,0.022579786,-0.169957575,0.000000000,0.000000000,3,4,0
1,219,42853349,20,1,0.500,CW,1,0.500000,-0.500000,-0.025656341,-0.003777648,-0.021878693,-0.026910651,-0.023171078,0.062122036,0.026446671,0.035675364,0.146939412,0.047624668,0.099314744,0.000000000,0.000000000,3,4,0
1,220,42854349,20,1,0.500,CW,1,0.500000,-0.500000,0.003665191,0.000468599,0.003196592,0.002410881,0.001904208,0.248762220,0.057339800,0.191422420,0.173260435,0.029873557,0.143386879,0.000000000,0.000000000,3,4,0
1,221,42855349,20,1,0.500,CW,1,0.500000,-0.500000,0.032986723,0.004061726,0.028924997,0.031732413,0.027632612,0.246369407,0.041815665,0.204553742,-0.085164405,-0.009399465,-0.075764940,0.000000000,0.000000000,3,4,0
1,222,42856349,20,1,0.500,CW,1,0.500000,-0.500000,0.041538838,0.004809912,0.036728926,0.040284528,0.035436541,0.040586643,-0.003563600,0.044150243,-0.408195466,-0.038827353,-0.369368113,0.000000000,0.000000000,3,4,0
1,223,42857349,20,1,0.500,CW,1,0.500000,-0.500000,0.025656341,0.001615949,0.024040391,0.024402031,0.022748007,-0.181945860,-0.049031689,-0.132914172,-0.544586360,-0.040720374,-0.503865987,0.000000000,0.000000000,3,4,0
1,224,42858349,20,1,0.500,CW,1,0.500000,-0.500000,-0.003665191,-0.003362701,-0.000302490,-0.004919501,-0.001594875,-0.272873133,-0.056950451,-0.215922682,-0.420159608,-0.009011417,-0.411148191,0.000000000,0.000000000,3,4,0
1,225,42859349,20,1,0.500,CW,1,0.500000,-0.500000,-0.028099801,-0.005302422,-0.022797379,-0.029354111,-0.024089764,-0.172374561,-0.013850861,-0.158523701,-0.109092630,0.034033691,-0.143126322,0.000000000,0.000000000,3,4,0
1,226,42860349,20,1,0.500,CW,1,0.500000,-0.500000,-0.028099801,-0.002621631,-0.025478170,-0.029354111,-0.026770555,0.069300517,0.040362501,0.028938017,0.166081995,0.046553026,0.119528969,0.000000000,0.000000000,3,4,0
1,227,42861349,20,1,0.500,CW,1,0.500000,-0.500000,0.006108652,0.001734677,0.004373976,0.004854342,0.003081591,0.251155078,0.057226773,0.193928306,0.173260435,0.018707643,0.154552792,0.000000000,0.000000000,3,4,0
1,228,42862349,20,1,0.500,CW,1,0.500000,-0.500000,0.041538838,0.004664235,0.036874604,0.040284528,0.035582219,0.224834010,0.030175577,0.194658433,-0.128235206,-0.020288212,-0.107946994,0.005872133,0.000000000,3,4,0
1,229,42863349,20,1,0.500,CW,1,0.500000,-0.500000,0.043982297,0.004255743,0.039726554,0.042727987,0.038434169,0.026229708,-0.018840537,0.045070244,-0.472801656,-0.042851404,-0.429950252,0.000000000,0.000000000,7,4,0
1,230,42864349,20,1,0.500,CW,1,0.500000,-0.500000,0.019547688,0.000097814,0.019449874,0.018293378,0.018157489,-0.196302801,-0.056905774,-0.139397027,-0.587657154,-0.034459595,-0.553197559,0.000000000,0.000000000,3,4,0
1,231,42865349,20,1,0.500,CW,1,0.500000,-0.500000,-0.012217305,-0.004447807,-0.007769498,-0.013471615,-0.009061883,-0.282444417,-0.048508994,-0.233935424,-0.429730862,0.004646928,-0.434377791,0.000000000,0.000000000,3,4,0
1,232,42866349,20,1,0.500,CW,1,0.500000,-0.500000,-0.028099801,-0.004902407,-0.023197394,-0.029354111,-0.024489779,-0.155624807,0.003960983,-0.159585790,-0.101914167,0.042463837,-0.144378004,0.000000000,0.000000000,3,4,0
1,233,42867349,20,1,0.500,CW,1,0.500000,-0.500000,-0.020769419,-0.001319659,-0.019449760,-0.022023729,-0.020742145,0.083657466,0.050544720,0.033112746,0.173260435,0.041524177,0.131736259,0.000000000,0.000000000,3,4,0
1,234,42868349,20,1,0.500,CW,1,0.500000,-0.500000,0.006108652,0.002863250,0.003245403,0.004854342,0.001953018,0.248762220,0.052983158,0.195779062,0.178046063,0.006603888,0.171442174,0.000000000,0.000000000,3,4,0
1,235,42869349,20,1,0.500,CW,1,0.500000,-0.500000,0.040317103,0.004961124,0.035355979,0.039062793,0.034063594,0.205691427,0.016510761,0.189180666,-0.106699817,-0.029601451,-0.077098366,0.000000000,0.000000000,3,4,0
1,236,42870349,20,1,0.500,CW,1,0.500000,-0.500000,0.048869219,0.003332173,0.045537045,0.047614909,0.044244661,-0.016841089,-0.033208844,0.016367754,-0.434516519,-0.044030657,-0.390485862,0.000000000,0.000000000,3,4,0
1,237,42871349,20,1,0.500,CW,1,0.500000,-0.500000,0.018325957,-0.001467606,0.019793563,0.017071647,0.018501178,-0.220231012,-0.060313090,-0.159917922,-0.542193532,-0.025162056,-0.517031476,0.000000000,0.000000000,3,4,0
1,238,42872349,20,1,0.500,CW,1,0.500000,-0.500000,-0.007330383,-0.005124662,-0.002205721,-0.008584693,-0.003498105,-0.282444417,-0.035685118,-0.246759299,-0.401016980,0.018262760,-0.419279741,0.000000000,0.000000000,3,4,0
1,239,42873349,20,1,0.500,CW,1,0.500000,-0.500000,-0.025656341,-0.004113122,-0.021543219,-0.026910651,-0.022835603,-0.143660694,0.021120661,-0.164781356,-0.106699817,0.047035086,-0.153734902,0.000000000,0.000000000,3,4,0
1,240,42874349,20,1,0.500,CW,1,0.500000,-0.500000,-0.023212880,0.000024485,-0.023237365,-0.024467190,-0.024529750,0.124335445,0.056389312,0.067946133,0.142153710,0.033225982,0.108927728,0.000000000,0.000000000,3,4,0
1,241,42875349,20,1,0.500,CW,1,0.500000,-0.500000,0.008552114,0.003799593,0.004752521,0.007297804,0.003460136,0.296618670,0.045140182,0.251478489,0.123011172,-0.005489817,0.128500989,0.005872133,0.000000000,3,4,0
1,242,42876349,20,1,0.500,CW,1,0.500000,-0.500000,0.042760566,0.004910256,0.037850309,0.041506256,0.036557925,0.236798108,0.001579976,0.235218132,-0.176091686,-0.036899005,-0.139192681,0.000000000,0.000000000,3,4,0
1,243,42877349,20,1,0.500,CW,1,0.500000,-0.500000,0.039095376,0.002089121,0.037006254,0.037841066,0.035713870,0.007087127,-0.045549293,0.052636421,-0.484765798,-0.042094991,-0.442670807,0.000000000,0.000000000,3,4,0
1,244,42878349,20,1,0.500,CW,1,0.500000,-0.500000,0.017104227,-0.002924974,0.020029201,0.015849917,0.018736817,-0.198695615,-0.058666029,-0.140029586,-0.556550503,-0.013373221,-0.543177281,0.000000000,0.000000000,3,4,0
1,245,42879349,20,1,0.500,CW,1,0.500000,-0.500000,0.001221730,-0.005336929,0.006558659,-0.000032580,0.005266274,-0.280051589,-0.019668780,-0.260382809,-0.377088785,0.030478340,-0.407567125,0.000000000,0.000000000,7,4,0
1,246,42880349,20,1,0.500,CW,1,0.500000,-0.500000,-0.025656341,-0.003030855,-0.022625486,-0.026910651,-0.023917870,-0.150839165,0.036070164,-0.186909329,-0.073200300,0.047376713,-0.120577013,0.000000000,0.000000000,3,4,0
1,247,42881349,20,1,0.500,CW,1,0.500000,-0.500000,-0.020769419,0.001322638,-0.022092057,-0.022023729,-0.023384442,0.105192862,0.057746242,0.047446620,0.161296338,0.022605565,0.138690773,0.000000000,0.000000000,3,4,0
1,248,42882349,20,1,0.500,CW,1,0.500000,-0.500000,0.013439035,0.004494023,0.008945012,0.012184725,0.007652627,0.255940706,0.034338714,0.221601992,0.125403985,-0.016789206,0.142193191,0.000000000,0.000000000,3,4,0
1,249,42883349,20,1,0.500,CW,1,0.500000,-0.500000,0.039095376,0.004483908,0.034611468,0.037841066,0.033319083,0.198512957,-0.013768068,0.212281024,-0.183270141,-0.041803785,-0.141466357,0.005872133,0.000000000,3,4,0
1,250,42884349,20,1,0.500,CW,1,0.500000,-0.500000,0.040317103,0.000619393,0.039697710,0.039062793,0.038405326,-0.012055445,-0.054723195,0.042667751,-0.496729910,-0.036913229,-0.459816682,0.000000000,0.000000000,3,4,0
1,251,42885349,20,1,0.500,CW,1,0.500000,-0.500000,0.018325957,-0.004125216,0.022451173,0.017071647,0.021158788,-0.217838198,-0.051871727,-0.165966471,-0.566121757,0.000007140,-0.566128897,0.000000000,0.000000000,3,4,0
1,252,42886349,20,1,0.500,CW,1,0.500000,-0.500000,-0.008552114,-0.005083884,-0.003468230,-0.009806424,-0.004760614,-0.282444417,-0.002020721,-0.280423696,-0.374695957,0.040035407,-0.414731364,0.000000000,0.000000000,3,4,0
1,253,42887349,20,1,0.500,CW,1,0.500000,-0.500000,-0.032986723,-0.001765649,-0.031221073,-0.034241033,-0.032513458,-0.146053523,0.047594886,-0.193648408,-0.066021822,0.043615124,-0.109636946,0.000000000,0.000000000,3,4,0
1,254,42888349,20,1,0.500,CW,1,0.500000,-0.500000,-0.017104227,0.002503820,-0.019608047,-0.018358537,-0.020900432,0.100407220,0.054836081,0.045571139,0.158903480,0.010703952,0.148199528,0.000000000,0.000000000,3,4,0
1,255,42889349,20,1,0.500,CW,1,0.500000,-0.500000,0.010995574,0.004898456,0.006097118,0.009741264,0.004804733,0.246369407,0.021271268,0.225098138,0.118225507,-0.026684242,0.144909750,0.000000000,0.000000000,3,4,0
1,256,42890349,20,1,0.500,CW,1,0.500000,-0.500000,0.035430182,0.003680712,0.031749469,0.034175872,0.030457085,0.174584702,-0.028561596,0.203146298,-0.180877313,-0.043971027,-0.136906286,0.000000000,0.000000000,3,4,0
1,257,42891349,20,1,0.500,CW,1,0.500000,-0.500000,0.037873644,-0.000947125,0.038820769,0.036619334,0.037528384,-0.038376492,-0.059714026,0.021337534,-0.479980171,-0.028590663,-0.451389507,0.000000000,0.000000000,3,4,0
1,258,42892349,20,1,0.500,CW,1,0.500000,-0.500000,0.013439035,-0.004947894,0.018386930,0.012184725,0.017094545,-0.210659713,-0.040407795,-0.170251918,-0.537407875,0.013787576,-0.551195451,0.000000000,0.000000000,3,4,0
1,259,42893349,20,1,0.500,CW,1,0.500000,-0.500000,-0.017104227,-0.004415566,-0.012688661,-0.018358537,-0.013981046,-0.256123364,0.015543381,-0.271666745,-0.343589246,0.045966047,-0.389555293,0.000000000,0.000000000,3,4,0
1,260,42894349,20,1,0.500,CW,1,0.500000,-0.500000,-0.034208454,-0.000424945,-0.033783509,-0.035462764,-0.035075894,-0.112554006,0.054931489,-0.167485496,-0.054057717,0.036316734,-0.090374452,0.000000000,0.000000000,3,4,0
1,261,42895349,20,1,0.500,CW,1,0.500000,-0.500000,-0.018325957,0.003510272,-0.021836229,-0.019580267,-0.023128613,0.138692379,0.048131924,0.090560455,0.154117852,-0.001489420,0.155607272,0.000000000,0.000000000,7,4,0
1,262,42896349,20,1,0.500,CW,1,0.500000,-0.500000,0.018325957,0.004968193,0.013357763,0.017071647,0.012065379,0.277476102,0.006675605,0.270800497,0.099082932,-0.034701597,0.133784529,0.000000000,0.000000000,3,4,0
1,263,42897349,20,1,0.500,CW,1,0.500000,-0.500000,0.042760566,0.002536507,0.040224059,0.041506256,0.038931674,0.176977515,-0.041710136,0.218687651,-0.209591180,-0.043102911,-0.166488269,0.005872133,0.000000000,3,4,0
1,264,42898349,20,1,0.500,CW,1,0.500000,-0.500000,0.040317103,-0.002458114,0.042775217,0.039062793,0.041482832,-0.055126261,-0.059798435,0.004672174,-0.499122739,-0.017553700,-0.481569038,0.000000000,0.000000000,3,4,0
1,265,42899349,20,1,0.500,CW,1,0.500000,-0.500000,0.008552114,-0.005318723,0.013870837,0.007297804,0.012578452,-0.215445384,-0.025302056,-0.190143328,-0.530229449,0.026621822,-0.556851271,0.000000000,0.000000000,3,4,0
1,266,42900349,20,1,0.500,CW,1,0.500000,-0.500000,-0.018325957,-0.003419553,-0.014906404,-0.019580267,-0.016198789,-0.253730536,0.031389179,-0.285119715,-0.312482566,0.047735642,-0.360218208,0.000000000,0.000000000,3,4,0
1,267,42901349,20,1,0.500,CW,1,0.500000,-0.500000,-0.029321531,0.000897345,-0.030218875,-0.030575841,-0.031511260,-0.095804237,0.057784187,-0.153588424,-0.022951014,0.026360024,-0.049311038,0.000000000,0.000000000,3,4,0
1,268,42902349,20,1,0.500,CW,1,0.500000,-0.500000,-0.017104227,0.004291207,-0.021395434,-0.018358537,-0.022687819,0.167406261,0.038246921,0.129159340,0.166081995,-0.013131255,0.179213250,0.000000000,0.000000000,3,4,0
1,269,42903349,20,1,0.500,CW,1,0.500000,-0.500000,0.015882496,0.004669416,0.011213080,0.014628186,0.009920695,0.279868901,-0.008634350,0.288503250,0.079940349,-0.040448252,0.120388601,0.000000000,0.000000000,3,4,0
1,270,42904349,20,1,0.500,CW,1,0.500000,-0.500000,0.046425760,0.001129903,0.045295857,0.045171450,0.044003472,0.169799075,-0.052068174,0.221867249,-0.233519405,-0.039011252,-0.194508153,0.000000000,0.000000000,3,4,0
1,271,42905349,20,1,0.500,CW,1,0.500000,-0.500000,0.037873644,-0.003759811,0.041633455,0.036619334,0.040341071,-0.064697549,-0.054705115,-0.009992434,-0.515872478,-0.004586353,-0.511286125,0.000000000,0.000000000,3,4,0
1,272,42906349,20,1,0.500,CW,1,0.500000,-0.500000,0.007330383,-0.005218385,0.012548768,0.006076073,0.011256383,-0.244159251,-0.008012568,-0.236146684,-0.530229449,0.037195836,-0.567425285,0.000000000,0.000000000,3,4,0
1,273,42907349,20,1,0.500,CW,1,0.500000,-0.500000,-0.013439035,-0.002203278,-0.011235757,-0.014693345,-0.012528142,-0.272873133,0.044170516,-0.317043649,-0.293339968,0.045306057,-0.338646025,0.000000000,0.000000000,3,4,0
1,274,42908349,20,1,0.500,CW,1,0.500000,-0.500000,-0.028099801,0.002124703,-0.030224504,-0.029354111,-0.031516889,-0.100589886,0.056261606,-0.156851492,0.005762838,0.014772521,-0.009009684,0.000000000,0.000000000,3,4,0
1,275,42909349,20,1,0.500,CW,1,0.500000,-0.500000,-0.014660765,0.004798097,-0.019458863,-0.015915075,-0.020751247,0.153049320,0.025859447,0.127189873,0.175653249,-0.023555415,0.199208664,0.000000000,0.000000000,3,4,0
1,276,42910349,20,1,0.500,CW,1,0.500000,-0.500000,0.019547688,0.003990572,0.015557116,0.018293378,0.014264731,0.263119131,-0.023730051,0.286849183,0.060797803,-0.043569481,0.104367284,0.000000000,0.000000000,3,4,0
1,277,42911349,20,1,0.500,CW,1,0.500000,-0.500000,0.042760566,-0.000420418,0.043180984,0.041506256,0.041888599,0.143478021,-0.058559877,0.202037898,-0.264626116,-0.031711238,-0.232914878,0.005872133,0.000000000,7,4,0
1,278,42912349,20,1,0.500,CW,1,0.500000,-0.500000,0.030543262,-0.004719891,0.035263153,0.029288952,0.033970768,-0.088625774,-0.044717629,-0.043908145,-0.527836621,0.009205826,-0.537042447,0.000000000,0.000000000,3,4,0
1,279,42913349,20,1,0.500,CW,1,0.500000,-0.500000,0.017104227,-0.004681027,0.021785254,0.015849917,0.020492869,-0.251337737,0.009770565,-0.261108302,-0.513479650,0.044425262,-0.557904912,0.000000000,0.000000000,3,4,0
1,280,42914349,20,1,0.500,CW,1,0.500000,-0.500000,-0.013439035,-0.000876596,-0.012562439,-0.014693345,-0.013854824,-0.256123364,0.052966459,-0.309089823,-0.252662003,0.039107578,-0.291769581,0.000000000,0.000000000,3,4,0
1,281,42915349,20,1,0.500,CW,1,0.500000,-0.500000,-0.034208454,0.003195600,-0.037404054,-0.035462764,-0.038696439,-0.074268833,0.050765797,-0.125034630,0.041655224,0.002574480,0.039080743,0.000000000,0.000000000,3,4,0
1,282,42916349,20,1,0.500,CW,1,0.500000,-0.500000,-0.012217305,0.004984540,-0.017201845,-0.013471615,-0.018494230,0.176977515,0.011689996,0.165287519,0.185224578,-0.032248791,0.217473369,0.000000000,0.000000000,3,4,0
1,283,42917349,20,1,0.500,CW,1,0.500000,-0.500000,0.020769419,0.002954067,0.017815352,0.019515109,0.016522967,0.282261729,-0.037556917,0.319818646,0.063190617,-0.043746957,0.106937573,0.000000000,0.000000000,3,4,0
1,284,42918349,20,1,0.500,CW,1,0.500000,-0.500000,0.045204025,-0.001967556,0.047171581,0.043949715,0.045879197,0.143478021,-0.060344380,0.203822401,-0.247876346,-0.021514529,-0.226361817,0.000000000,0.000000000,3,4,0
1,285,42919349,20,1,0.500,CW,1,0.500000,-0.500000,0.039095376,-0.005247125,0.044342500,0.037841066,0.043050116,-0.095804237,-0.030688004,-0.065116233,-0.515872478,0.022509406,-0.538381885,0.000000000,0.000000000,3,4,0
1,286,42920349,20,1,0.500,CW,1,0.500000,-0.500000,0.010995574,-0.003783487,0.014779062,0.009741264,0.013486677,-0.248944879,0.026360248,-0.275305126,-0.506301165,0.047618786,-0.553919951,0.000000000,0.000000000,3,4,0
1,287,42921349,20,1,0.500,CW,1,0.500000,-0.500000,-0.019547688,0.000461257,-0.020008944,-0.020801998,-0.021301329,-0.239373595,0.057328097,-0.296701692,-0.240697876,0.029931362,-0.270629238,0.000000000,0.000000000,3,4,0
1,288,42922349,20,1,0.500,CW,1,0.500000,-0.500000,-0.029321531,0.004057590,-0.033379120,-0.030575841,-0.034671505,-0.040769324,0.041873662,-0.082642986,0.051226478,-0.009335186,0.060561664,0.000000000,0.000000000,3,4,0
1,289,42923349,20,1,0.500,CW,1,0.500000,-0.500000,-0.006108652,0.004811935,-0.010920587,-0.007362962,-0.012212972,0.205691427,-0.003477667,0.209169094,0.168474808,-0.038797491,0.207272300,0.000000000,0.000000000,3,4,0
1,290,42924349,20,1,0.500,CW,1,0.500000,-0.500000,0.023212880,0.001624023,0.021588857,0.021958570,0.020296472,0.284654528,-0.048976798,0.333631326,0.003370043,-0.040746292,0.044116335,0.005872133,0.000000000,3,4,0
1,291,42925349,20,1,0.500,CW,1,0.500000,-0.500000,0.045204025,-0.003355673,0.048559698,0.043949715,0.047267313,0.138692379,-0.056983775,0.195676154,-0.317268193,-0.009085376,-0.308182817,0.000000000,0.000000000,3,4,0
1,292,42926349,20,1,0.500,CW,1,0.500000,-0.500000,0.036651913,-0.005303423,0.041955336,0.035397603,0.040662951,-0.102982715,-0.013948990,-0.089033724,-0.554157674,0.033977134,-0.588134808,0.000000000,0.000000000,3,4,0
1,293,42927349,20,1,0.500,CW,1,0.500000,-0.500000,0.003665191,-0.002628597,0.006293788,0.002410881,0.005001404,-0.263301849,0.040294343,-0.303596193,-0.506301165,0.046570479,-0.552871644,0.000000000,0.000000000,7,4,0
1,294,42928349,20,1,0.500,CW,1,0.500000,-0.500000,-0.023212880,0.001727930,-0.024940810,-0.024467190,-0.026233195,-0.248944879,0.057239295,-0.306184174,-0.209591180,0.018773572,-0.228364752,0.000000000,0.000000000,3,4,0
1,295,42929349,20,1,0.500,CW,1,0.500000,-0.500000,-0.029321531,0.004661675,-0.033983205,-0.030575841,-0.035275590,-0.043162137,0.030246906,-0.073409043,0.089511640,-0.020231303,0.109742943,0.000000000,0.000000000,3,4,0
1,296,42930349,20,1,0.500,CW,1,0.500000,-0.500000,0.003665191,0.004259892,-0.000594700,0.002410881,-0.001887085,0.193727285,-0.018756712,0.212483996,0.187617391,-0.042836534,0.230453925,0.000000000,0.000000000,3,4,0
1,297,42931349,20,1,0.500,CW,1,0.500000,-0.500000,0.026878070,0.000106568,0.026771502,0.025623760,0.025479118,0.260726333,-0.056873450,0.317599783,0.015334128,-0.034503346,0.049837474,0.000000000,0.000000000,3,4,0
1,298,42932349,20,1,0.500,CW,1,0.500000,-0.500000,0.045204025,-0.004442801,0.049646826,0.043949715,0.048354441,0.109978504,-0.048569210,0.158547715,-0.307696939,0.004569489,-0.312266427,0.005872133,0.000000000,3,4,0
1,299,42933349,20,1,0.500,CW,1,0.500000,-0.500000,0.031764992,-0.004905802,0.036670793,0.030510682,0.035378408,-0.122125290,0.003861723,-0.125987013,-0.546979189,0.042426883,-0.589406072,0.000000000,0.000000000,3,4,0
1,300,42934349,20,1,0.500,CW,1,0.500000,-0.500000,0.001221730,-0.001327140,0.002548870,-0.000032580,0.001256486,-0.260908991,0.050499543,-0.311408535,-0.503908336,0.041562144,-0.545470480,0.000000000,0.000000000,3,4,0
1,301,42935349,20,1,0.500,CW,1,0.500000,-0.500000,-0.019547688,0.002857431,-0.022405119,-0.020801998,-0.023697504,-0.225016668,0.053017424,-0.278034093,-0.211983994,0.006672294,-0.218656287,0.000000000,0.000000000,3,4,0
1,302,42936349,20,1,0.500,CW,1,0.500000,-0.500000,-0.026878070,0.004960397,-0.031838467,-0.028132380,-0.033130852,-0.007269799,0.016591358,-0.023861157,0.079940349,-0.029554649,0.109494998,0.000000000,0.000000000,3,4,0
1,303,42937349,20,1,0.500,CW,1,0.500000,-0.500000,-0.006108652,0.003338287,-0.009446939,-0.007362962,-0.010739324,0.229619637,-0.033133134,0.262752771,0.154117852,-0.044032517,0.198150370,0.000000000,0.000000000,3,4,0
1,304,42938349,20,1,0.500,CW,1,0.500000,-0.500000,0.025656341,-0.001459015,0.027115356,0.024402031,0.025822971,0.289440244,-0.060307754,0.349747999,-0.032522306,-0.025221595,-0.007300711,0.000000000,0.000000000,3,4,0
1,305,42939349,20,1,0.500,CW,1,0.500000,-0.500000,0.048869219,-0.005122144,0.053991363,0.047614909,0.052698978,0.112371318,-0.035766943,0.148138261,-0.353160530,0.018189328,-0.371349858,0.000000000,0.000000000,3,4,0
1,306,42940349,20,1,0.500,CW,1,0.500000,-0.500000,0.034208454,-0.004118445,0.038326899,0.032954144,0.037034514,-0.131696582,0.021029617,-0.152726199,-0.566121757,0.047021185,-0.613142942,0.000000000,0.000000000,3,4,0
1,307,42941349,20,1,0.500,CW,1,0.500000,-0.500000,0.004886922,0.000017030,0.004869892,0.003632612,0.003577507,-0.265694648,0.056369179,-0.322063827,-0.494337082,0.033279747,-0.527616829,0.000000000,0.000000000,3,4,0
1,308,42942349,20,1,0.500,CW,1,0.500000,-0.500000,-0.018325957,0.003794988,-0.022120945,-0.019580267,-0.023413330,-0.227409482,0.045192841,-0.272602323,-0.190448597,-0.005423815,-0.185024782,0.000000000,0.000000000,3,4,0
1,309,42943349,20,1,0.500,CW,1,0.500000,-0.500000,-0.028099801,0.004911568,-0.033011369,-0.029354111,-0.034303754,-0.012055445,0.001665391,-0.013720835,0.101475738,-0.036864549,0.138340287,0.000000000,0.000000000,7,4,0
1,310,42944349,20,1,0.500,CW,1,0.500000,-0.500000,-0.002443461,0.002096801,-0.004540262,-0.003697771,-0.005832647,0.217655540,-0.045488114,0.263143654,0.158903480,-0.042114791,0.201018270,0.000000000,0.000000000,3,4,0
1,311,42945349,20,1,0.500,CW,1,0.500000,-0.500000,0.032986723,-0.002917417,0.035904140,0.031732413,0.034611755,0.265511990,-0.058689701,0.324201690,-0.054057717,-0.013444494,-0.040613224,0.005872133,0.000000000,3,4,0
1,312,42946349,20,1,0.500,CW,1,0.500000,-0.500000,0.041538838,-0.005337060,0.046875898,0.040284528,0.045583514,0.078871801,-0.019764359,0.098636160,-0.372303128,0.030416412,-0.402719540,0.000000000,0.000000000,3,4,0
1,313,42947349,20,1,0.500,CW,1,0.500000,-0.500000,0.034208454,-0.003037513,0.037245968,0.032954144,0.035953583,-0.160410449,0.035995227,-0.196405676,-0.563728929,0.047386542,-0.611115470,0.000000000,0.000000000,3,4,0
1,314,42948349,20,1,0.500,CW,1,0.500000,-0.500000,0.010995574,0.001315652,0.009679923,0.009741264,0.008387538,-0.284837216,0.057750860,-0.342588076,-0.479980171,0.022669424,-0.502649595,0.000000000,0.000000000,3,4,0
1,315,42949349,20,1,0.500,CW,1,0.500000,-0.500000,-0.023212880,0.004490905,-0.027703785,-0.024467190,-0.028996170,-0.229802325,0.034406014,-0.264208339,-0.159341916,-0.016729487,-0.142612429,0.000000000,0.000000000,3,4,0
1,316,42950349,20,1,0.500,CW,1,0.500000,-0.500000,-0.030543262,0.004487350,-0.035030613,-0.031797572,-0.036322997,0.004694314,-0.013682899,0.018377213,0.144546598,-0.041783681,0.186330279,0.000000000,0.000000000,3,4,0
1,317,42951349,20,1,0.500,CW,1,0.500000,-0.500000,-0.002443461,0.000628007,-0.003071468,-0.003697771,-0.004363853,0.227226824,-0.054682721,0.281909544,0.192403018,-0.036951136,0.229354154,0.000000000,0.000000000,3,4,0
1,318,42952349,20,1,0.500,CW,1,0.500000,-0.500000,0.028099801,-0.004119467,0.032219268,0.026845491,0.030926883,0.251155078,-0.051923369,0.303078447,-0.049272072,-0.000069934,-0.049202137,0.000000000,0.000000000,3,4,0
1,319,42953349,20,1,0.500,CW,1,0.500000,-0.500000,0.041538838,-0.005086518,0.046625357,0.040284528,0.045332972,0.078871801,-0.002120683,0.080992485,-0.384267241,0.039991369,-0.424258609,0.000000000,0.000000000,3,4,0
1,320,42954349,20,1,0.500,CW,1,0.500000,-0.500000,0.028099801,-0.001773022,0.029872824,0.026845491,0.028580439,-0.138875052,0.047541647,-0.186416699,-0.570907414,0.043646663,-0.614554077,0.005872133,0.000000000,3,4,0
1,321,42955349,20,1,0.500,CW,1,0.500000,-0.500000,0.002443461,0.002497657,-0.000054196,0.001189151,-0.001346581,-0.265694648,0.054863402,-0.320558050,-0.489551425,0.010772117,-0.500323542,0.000000000,0.000000000,3,4,0
1,322,42956349,20,1,0.500,CW,1,0.500000,-0.500000,-0.025656341,0.004897088,-0.030553429,-0.026910651,-0.031845813,-0.201088443,0.021349230,-0.222437674,-0.171306014,-0.026633786,-0.144672229,0.000000000,0.000000000,3,4,0
1,323,42957349,20,1,0.500,CW,1,0.500000,-0.500000,-0.024434609,0.003686200,-0.028120809,-0.025688919,-0.029413194,0.031015353,-0.028482461,0.059497814,0.134975269,-0.043967109,0.178942378,0.000000000,0.000000000,3,4,0
1,324,42958349,20,1,0.500,CW,1,0.500000,-0.500000,0.001221730,-0.000938381,0.002160111,-0.000032580,0.000867726,0.239190921,-0.059699283,0.298890204,0.163689151,-0.028645260,0.192334412,0.000000000,0.000000000,3,4,0
1,325,42959349,20,1,0.500,CW,1,0.500000,-0.500000,0.030543262,-0.004944509,0.035487771,0.029288952,0.034195387,0.251155078,-0.040483143,0.291638221,-0.092342876,0.013711943,-0.106054818,0.000000000,0.000000000,7,4,0
1,326,42960349,20,1,0.500,CW,1,0.500000,-0.500000,0.051312681,-0.004420304,0.055732985,0.050058371,0.054440601,0.045372307,0.015448610,0.029923698,-0.415373951,0.045944203,-0.461318154,0.000000000,0.000000000,3,4,0
1,327,42961349,20,1,0.500,CW,1,0.500000,-0.500000,0.029321531,-0.000432463,0.029753994,0.028067221,0.028461609,-0.184338674,0.054902888,-0.239241562,-0.556550503,0.036365810,-0.592916313,0.000000000,0.000000000,3,4,0
1,328,42962349,20,1,0.500,CW,1,0.500000,-0.500000,-0.002443461,0.003505230,-0.005948691,-0.003697771,-0.007241076,-0.268087476,0.048178823,-0.316266300,-0.441695005,-0.001422130,-0.440272875,0.000000000,0.000000000,3,4,0
1,329,42963349,20,1,0.500,CW,1,0.500000,-0.500000,-0.025656341,0.004968804,-0.030625144,-0.026910651,-0.031917529,-0.193909973,0.006759934,-0.200669907,-0.147377789,-0.034662772,-0.112715017,0.000000000,0.000000000,3,4,0
1,330,42964349,20,1,0.500,CW,1,0.500000,-0.500000,-0.018325957,0.002543721,-0.020869678,-0.019580267,-0.022162062,0.031015353,-0.041643369,0.072658723,0.132582456,-0.043116615,0.175699071,0.000000000,0.000000000,3,4,0
1,331,42965349,20,1,0.500,CW,1,0.500000,-0.500000,0.009773844,-0.002450116,0.012223960,0.008519534,0.010931576,0.248762220,-0.059812338,0.308574559,0.168474808,-0.017621615,0.186096423,0.000000000,0.000000000,3,4,0
1,332,42966349,20,1,0.500,CW,1,0.500000,-0.500000,0.032986723,-0.005317968,0.038304691,0.031732413,0.037012307,0.255940706,-0.025394019,0.281334724,-0.089950047,0.026555249,-0.116505296,0.005872133,0.000000000,3,4,0
1,333,42967349,20,1,0.500,CW,1,0.500000,-0.500000,0.043982297,-0.003425833,0.047408130,0.042727987,0.046115745,0.042979475,0.031308094,0.011671381,-0.424945235,0.047737615,-0.472682851,0.000000000,0.000000000,3,4,0
1,334,42968349,20,1,0.500,CW,1,0.500000,-0.500000,0.019547688,0.000890158,0.018657530,0.018293378,0.017365145,-0.189124331,0.057780664,-0.246904995,-0.578085899,0.026421157,-0.604507057,0.000000000,0.000000000,3,4,0
1,335,42969349,20,1,0.500,CW,1,0.500000,-0.500000,-0.004886922,0.004287561,-0.009174483,-0.006141232,-0.010466868,-0.287230045,0.038309747,-0.325539791,-0.444087803,-0.013069059,-0.431018745,0.000000000,0.000000000,0,4,0
1,336,42970349,20,1,0.500,CW,1,0.500000,-0.500000,-0.023212880,0.004672144,-0.027885024,-0.024467190,-0.029177408,-0.184338674,-0.008548489,-0.175790185,-0.111485459,-0.040423123,-0.071062336,0.000000000,0.000000000,0,4,0
1,337,42971349,20,1,0.500,CW,1,0.500000,-0.500000,-0.023212880,0.001138287,-0.024351167,-0.024467190,-0.025643552,0.052550767,-0.052020122,0.104570889,0.175653249,-0.039043159,0.214696408,0.000000000,0.000000000,0,4,0
1,338,42972349,20,1,0.500,CW,1,0.500000,-0.500000,-0.026878070,-0.003753381,-0.023124689,-0.028132380,-0.024417074,0.234405294,-0.054747699,0.289152993,0.190010205,-0.004662241,0.194672446,0.000000000,0.000000000,0,4,0
1,339,42973349,20,1,0.500,CW,1,0.500000,-0.500000,0.001221730,-0.005220214,0.006441944,-0.000032580,0.005149560,0.234405294,-0.008112145,0.242517439,-0.099521339,0.037145202,-0.136666540,0.000000000,0.000000000,0,4,0
1,340,42974349,20,1,0.500,CW,1,0.500000,-0.500000,0.035430182,-0.002210478,0.037640660,0.034175872,0.036348275,0.234405294,0.044109543,0.190295751,-0.099521339,0.045330693,-0.144852032,0.000000000,0.000000000,0,4,0
1,341,42975349,20,1,0.500,CW,1,0.500000,-0.500000,0.047647487,0.002118229,0.045529259,0.046393177,0.044236874,0.033408184,0.056281625,-0.022873441,-0.448873430,0.014839861,-0.463713292,0.000000000,0.000000000,0,4,0
1,342,42976349,20,1,0.500,CW,1,0.500000,-0.500000,0.020769419,0.004796114,0.015973305,0.019515109,0.014680920,-0.196302801,0.025934294,-0.222237095,-0.585264325,-0.023501566,-0.561762759,0.000000000,0.000000000,1,4,0
1,343,42977349,20,1,0.500,CW,1,0.500000,-0.500000,-0.003665191,0.003995398,-0.007660589,-0.004919501,-0.008952974,-0.280051589,-0.023648208,-0.256403381,-0.444087803,-0.043559950,-0.400527853,0.000000000,0.000000000,1,4,0
1,344,42978349,20,1,0.500,CW,1,0.500000,-0.500000,-0.021991149,-0.000411621,-0.021579528,-0.023245459,-0.022871912,-0.174767390,-0.058536060,-0.116231329,-0.118663922,-0.031760515,-0.086903407,0.005872133,0.000000000,3,4,0
1,345,42979349,20,1,0.500,CW,1,0.500000,-0.500000,-0.021991149,-0.004715668,-0.017275481,-0.023245459,-0.018567866,0.064514890,-0.044785695,0.109300585,0.156510666,0.009128857,0.147381809,0.000000000,0.000000000,3,4,0
1,346,42980349,20,1,0.500,CW,1,0.500000,-0.500000,0.008552114,-0.004685116,0.013237230,0.007297804,0.011944845,0.248762220,0.009673030,0.239089191,0.166081995,0.044395657,0.121686338,0.000000000,0.000000000,3,4,0
1,347,42981349,20,1,0.500,CW,1,0.500000,-0.500000,0.037873644,-0.000884124,0.038757768,0.036619334,0.037465383,0.220048353,0.052929434,0.167118919,-0.111485459,0.039151341,-0.150636800,0.000000000,0.000000000,3,4,0
1,348,42982349,20,1,0.500,CW,1,0.500000,-0.500000,0.045204025,0.003190151,0.042013874,0.043949715,0.040721489,0.007087127,0.050806523,-0.043719395,-0.444087803,0.002642585,-0.446730388,0.000000000,0.000000000,3,4,0
1,349,42983349,20,1,0.500,CW,1,0.500000,-0.500000,0.031764992,0.004984466,0.026780525,0.030510682,0.025488141,-0.203481257,0.011772698,-0.215253955,-0.568514585,-0.032205827,-0.536308759,0.000000000,0.000000000,3,4,0
1,350,42984349,20,1,0.500,CW,1,0.000000,0.000000,-0.001221730,0.002960753,-0.004182483,-0.002476040,-0.005474868,-0.277103454,-0.037485283,-0.239618171,-0.419319272,-0.043754635,-0.375564637,0.000000000,0.000000000,3,8,0
1,351,42985349,20,1,0.500,CW,1,0.000000,0.000000,-0.029321531,-0.001959212,-0.027362319,-0.030575841,-0.028654704,-0.154759347,-0.060348523,-0.094410825,-0.098483682,-0.021578482,-0.076905200,-0.011744265,0.011744265,3,8,0
1,352,42986349,20,1,0.500,CW,1,0.000000,0.000000,-0.020769419,-0.005245478,-0.015523941,-0.022023729,-0.016816326,0.086741902,-0.030775330,0.117517232,0.181113601,0.022438969,0.158674631,-0.017616399,0.029360663,3,8,0
1,353,42987349,20,1,0.500,CW,1,0.000000,0.000000,0.009773844,-0.003789319,0.013563163,0.008519534,0.012270778,0.284775466,0.026273740,0.258501725,0.097170062,0.047612770,0.049557292,-0.017616399,0.029360663,3,8,0
1,354,42988349,20,1,0.500,CW,1,0.000000,0.000000,0.012217305,0.000453912,0.011763393,0.010962995,0.010471008,0.336742729,0.057316255,0.279426474,-0.502421558,0.029989106,-0.532410664,-0.005872133,0.017616399,3,8,0
1,355,42989349,20,1,0.500,CW,1,0.000000,0.000000,-0.039095376,0.004053445,-0.043148821,-0.040349686,-0.044441206,0.252487987,0.041931574,0.210556413,-1.289468884,-0.009270875,-1.280198009,-0.005872133,0.011744265,3,8,0
1,356,42990349,20,1,0.500,CW,1,0.000000,0.000000,-0.163711891,0.004813946,-0.168525837,-0.164966201,-0.169818222,0.154073447,-0.003391739,0.157465186,-1.762109399,-0.038767551,-1.723341848,0.000000000,0.005872133,3,8,0
1,357,42991349,20,1,0.500,CW,1,0.000000,0.000000,-0.283441454,0.001632091,-0.285073545,-0.284695764,-0.286365929,0.115556724,-0.048921797,0.164478522,-1.725152850,-0.040772109,-1.684380741,-0.011744265,0.011744265,3,8,0
1,358,42992349,20,1,0.500,CW,1,0.000000,0.000000,-0.375071257,-0.003348635,-0.371722623,-0.376325567,-0.373015007,0.191742778,-0.057016940,0.248759718,-1.334840417,-0.009159296,-1.325681121,-0.017616399,0.017616399,7,8,0
1,359,42993349,20,1,0.500,CW,1,0.000000,0.000000,-0.416610092,-0.005304409,-0.411305683,-0.417864402,-0.412598067,0.408670664,-0.014047087,0.422717751,-0.957248867,0.033920482,-0.991169348,-0.023488531,0.023488531,3,8,0
1,360,42994349,20,1,0.500,CW,1,0.000000,0.000000,-0.436157763,-0.002635558,-0.433522205,-0.437412073,-0.434814590,0.546359479,0.040226068,0.506133411,-0.869365036,0.046587808,-0.915952845,-0.017616399,0.017616399,3,8,0
1,361,42995349,20,1,0.500,CW,1,0.000000,0.000000,-0.453262001,0.001721180,-0.454983181,-0.454516311,-0.456275566,0.392432362,0.057251688,0.335180674,-1.082549572,0.018839471,-1.101389043,-0.023488531,0.011744265,3,8,0
1,362,42996349,20,1,0.500,CW,1,0.000000,0.000000,-0.491135627,0.004659105,-0.495794732,-0.492389937,-0.497087117,0.083590724,0.030318171,0.053272552,-1.378889203,-0.020174345,-1.358714858,-0.017616399,0.011744265,3,8,0
1,363,42997349,20,1,0.500,CW,1,0.000000,0.000000,-0.565661192,0.004264029,-0.569925220,-0.566915502,-0.571217605,-0.138663888,-0.018672859,-0.119991029,-1.457324743,-0.042821574,-1.414503169,-0.023488531,0.017616399,3,8,0
1,364,42998349,20,1,0.500,CW,1,0.000000,0.000000,-0.632856369,0.000115320,-0.632971689,-0.634110679,-0.634264073,-0.245848224,-0.056840986,-0.189007237,-1.265755177,-0.034547002,-1.231208175,-0.023488531,0.017616399,3,8,0
1,365,42999349,20,1,0.500,CW,1,0.000000,0.000000,-0.676838636,-0.004437782,-0.672400854,-0.678092946,-0.673693239,-0.235804394,-0.048629288,-0.187175105,-0.948002696,0.004492049,-0.952494745,-0.023488531,0.029360663,3,8,0
1,366,43000349,20,1,0.500,CW,1,0.000000,0.000000,-0.679282129,-0.004909183,-0.674372945,-0.680536439,-0.675665330,-0.099214666,0.003762442,-0.102977108,-0.724019289,0.042389808,-0.766409097,-0.023488531,0.035232797,3,8,0
1,367,43001349,20,1,0.500,CW,1,0.000000,0.000000,-0.678060353,-0.001334620,-0.676725733,-0.679314663,-0.678018118,0.010833456,0.050454230,-0.039620774,-0.767943919,0.041600007,-0.809543926,-0.017616399,0.041104928,3,8,0
1,368,43002349,20,1,0.500,CW,1,0.000000,0.000000,-0.659734428,0.002851607,-0.662586035,-0.660988738,-0.663878419,-0.044113081,0.053051578,-0.097164659,-1.012375832,0.006740699,-1.019116531,-0.023488531,0.041104928,3,8,0
1,369,43003349,20,1,0.500,CW,1,0.000000,0.000000,-0.664621413,0.004959659,-0.669581071,-0.665875723,-0.670873456,-0.215963528,0.016671914,-0.232635442,-1.156021357,-0.029507784,-1.126513572,-0.023488531,0.035232797,3,8,0
1,370,43004349,20,1,0.500,CW,1,0.000000,0.000000,-0.701273322,0.003344390,-0.704617712,-0.702527632,-0.705910097,-0.330157369,-0.033057361,-0.297100009,-0.993710876,-0.044034280,-0.949676596,-0.023488531,0.035232797,3,8,0
1,371,43005349,20,1,0.500,CW,1,0.000000,0.000000,-0.731816530,-0.001450420,-0.730366110,-0.733070840,-0.731658495,-0.322332919,-0.060302260,-0.262030658,-0.623965800,-0.025281054,-0.598684746,-0.029360663,0.035232797,3,8,0
1,372,43006349,20,1,0.500,CW,1,0.000000,0.000000,-0.740368605,-0.005119612,-0.735248992,-0.741622915,-0.736541377,-0.171241954,-0.035848668,-0.135393286,-0.247796059,0.018115852,-0.265911910,-0.023488531,0.035232797,3,8,0
1,373,43007349,20,1,0.500,CW,1,0.000000,0.000000,-0.736703455,-0.004123758,-0.732579697,-0.737957765,-0.733872082,0.139545321,0.020938502,0.118606819,-0.003720683,0.047007150,-0.050727833,-0.023488531,0.035232797,3,8,0
1,374,43008349,20,1,0.500,CW,1,0.000000,0.000000,-0.706160188,0.000009573,-0.706169761,-0.707414498,-0.707462146,0.464039296,0.056348904,0.407690392,-0.010877368,0.033333439,-0.044210807,-0.017616399,0.023488531,7,8,0
1,375,43009349,20,1,0.500,CW,1,0.000000,0.000000,-0.693942904,0.003790377,-0.697733281,-0.695197214,-0.699025666,0.627885759,0.045245409,0.582640350,-0.175630167,-0.005357787,-0.170272380,-0.023488531,0.023488531,3,8,0
1,376,43010349,20,1,0.500,CW,1,0.000000,0.000000,-0.700051546,0.004912867,-0.704964413,-0.701305856,-0.706256798,0.617077768,0.001750792,0.615326976,-0.246920049,-0.036830018,-0.210090031,-0.029360663,0.017616399,3,8,0
1,377,43011349,20,1,0.500,CW,1,0.000000,0.000000,-0.715934038,0.002104474,-0.718038512,-0.717188348,-0.719330896,0.568082869,-0.045426836,0.613509705,-0.088815749,-0.042134488,-0.046681260,-0.023488531,0.017616399,3,8,0
1,378,43012349,20,1,0.500,CW,1,0.000000,0.000000,-0.720820963,-0.002909852,-0.717911111,-0.722075273,-0.719203496,0.629035711,-0.058713210,0.687748921,0.245687023,-0.013515716,0.259202738,-0.023488531,0.011744265,3,8,0
1,379,43013349,20,1,0.500,CW,1,0.000000,0.000000,-0.698829830,-0.005337177,-0.693492653,-0.700084140,-0.694785038,0.849865079,-0.019859885,0.869724964,0.572356761,0.030354400,0.542002361,-0.017616399,0.011744265,3,8,0
1,380,43014349,20,1,0.500,CW,1,0.000000,0.000000,-0.664621413,-0.003044166,-0.661577247,-0.665875723,-0.662869632,1.115625501,0.035920183,1.079705318,0.731210470,0.047396242,0.683814228,-0.011744265,0.017616399,3,8,0
1,381,43015349,20,1,0.500,CW,1,0.000000,0.000000,-0.621860802,0.001308662,-0.623169464,-0.623115112,-0.624461849,1.294884920,0.057755344,1.237129576,0.631838500,0.022733244,0.609105257,-0.005872133,0.017616399,3,8,0
1,382,43016349,20,1,0.500,CW,1,0.000000,0.000000,-0.590095818,0.004487778,-0.594583596,-0.591350128,-0.595875981,1.254086733,0.034473243,1.219613490,0.358338654,-0.016669724,0.375008378,-0.017616399,0.029360663,3,8,0
1,383,43017349,20,1,0.500,CW,1,0.000000,0.000000,-0.561996043,0.004490781,-0.566486824,-0.563250353,-0.567779209,0.976954281,-0.013597714,0.990551995,0.152250767,-0.041763492,0.194014259,-0.011744265,0.017616399,3,8,0
1,384,43018349,20,1,0.500,CW,1,0.000000,0.000000,-0.555887341,0.000636619,-0.556523960,-0.557141652,-0.557816345,0.690823913,-0.054642115,0.745466028,0.202095062,-0.036988944,0.239084006,-0.011744265,0.023488531,3,8,0
1,385,43019349,20,1,0.500,CW,1,0.000000,0.000000,-0.540004849,-0.004113705,-0.535891144,-0.541259159,-0.537183529,0.543772042,-0.051974863,0.595746904,0.483479172,-0.000146996,0.483626168,-0.011744265,0.023488531,3,8,0
1,386,43020349,20,1,0.500,CW,1,0.000000,0.000000,-0.508239865,-0.005089139,-0.503150726,-0.509494175,-0.504443111,0.461491227,-0.002220648,0.463711875,0.800121188,0.039947216,0.760173972,-0.005872133,0.017616399,3,8,0
1,387,43021349,20,1,0.500,CW,1,0.000000,0.000000,-0.455705464,-0.001780393,-0.453925071,-0.456959774,-0.455217455,0.379374951,0.047488276,0.331886675,0.960907459,0.043678091,0.917229368,0.000000000,0.017616399,3,8,0
1,388,43022349,20,1,0.500,CW,1,0.000000,0.000000,-0.395840675,0.002491489,-0.398332164,-0.397094985,-0.399624548,0.187573239,0.054890603,0.132682636,0.873016238,0.010840273,0.862175965,-0.005872133,0.005872133,3,8,0
1,389,43023349,20,1,0.500,CW,1,0.000000,0.000000,-0.338419318,0.004895709,-0.343315028,-0.339673628,-0.344607412,-0.185335696,0.021427144,-0.206762840,0.646794796,-0.026583270,0.673378066,-0.005872133,0.011744265,3,8,0
1,390,43024349,20,1,0.500,CW,1,0.000000,0.000000,-0.294437051,0.003691676,-0.298128727,-0.295691361,-0.299421112,-0.626751840,-0.028403275,-0.598348565,0.492666781,-0.043963096,0.536629877,0.000000000,0.005872133,7,8,0
1,391,43025349,20,1,0.500,CW,1,0.000000,0.000000,-0.261450320,-0.000929635,-0.260520686,-0.262704630,-0.261813070,-1.043404818,-0.059684386,-0.983720432,0.520337880,-0.028699771,0.549037651,-0.005872133,0.005872133,3,8,0
1,392,43026349,20,1,0.500,CW,1,0.000000,0.000000,-0.232128799,-0.004941110,-0.227187689,-0.233383109,-0.228480074,-1.299226165,-0.040558375,-1.258667790,0.691235900,0.013636280,0.677599620,-0.005872133,0.005872133,3,8,0
1,393,43027349,20,1,0.500,CW,1,0.000000,0.000000,-0.186924756,-0.004425032,-0.182499724,-0.188179066,-0.183792109,-1.265583158,0.015353784,-1.280936941,0.871344149,0.045922227,0.825421922,0.000000000,0.005872133,3,8,0
1,394,43028349,20,1,0.500,CW,1,0.000000,0.000000,-0.123394780,-0.000439982,-0.122954798,-0.124649090,-0.124247182,-1.124545813,0.054874145,-1.179419958,0.910198212,0.036414802,0.873783410,0.000000000,0.000000000,3,8,0
1,395,43029349,20,1,0.500,CW,1,0.000000,0.000000,-0.064751714,0.003500181,-0.068251896,-0.066006024,-0.069544281,-1.112744570,0.048225623,-1.160970193,0.731662989,-0.001354822,0.733017810,0.000000000,0.000000000,3,8,0
1,396,43030349,20,1,0.500,CW,1,0.000000,0.000000,-0.010995574,0.004969403,-0.015964977,-0.012249884,-0.017257362,-1.253801227,0.006844241,-1.260645467,0.479455769,-0.034623875,0.514079644,0.000000000,0.000000000,3,8,0
1,397,43031349,20,1,0.500,CW,1,0.000000,0.000000,0.021991149,0.002550927,0.019440222,0.020736839,0.018147837,-1.442336679,-0.041576516,-1.400760163,0.323274434,-0.043130218,0.366404652,0.000000000,0.000000000,3,8,0
1,398,43032349,20,1,0.500,CW,1,0.000000,0.000000,0.025656341,-0.002442113,0.028098453,0.024402031,0.026806069,-1.491988778,-0.059826079,-1.432162699,0.356060356,-0.017689468,0.373749824,0.000000000,0.000000000,3,8,0
1,399,43033349,20,1,0.500,CW,1,0.000000,0.000000,0.032986723,-0.005317199,0.038303922,0.031732413,0.037011537,-1.329006433,-0.025485913,-1.303520521,0.558331490,0.026488604,0.531842886,0.000000000,0.000000000,3,8,0
